<Bundle xmlns="http://hl7.org/fhir">
  <id value="urn:uuid:df4f603d-f20e-4a95-8536-613dec8ad5a2" />
  <meta>
    <profile value="http://www.hl7.org/fhir/us/vrdr/StructureDefinition/VRDR-Death-Certificate-Document" />
  </meta>
  <identifier>
    <value value="42" />
  </identifier>
  <type value="document" />
  <entry>
    <fullUrl value="urn:uuid:ea957498-3757-490c-9b07-f29dab80819e" />
    <resource>
      <Composition>
        <id value="urn:uuid:ea957498-3757-490c-9b07-f29dab80819e" />
        <meta>
          <profile value="http://www.hl7.org/fhir/us/vrdr/StructureDefinition/VRDR-Death-Certificate" />
        </meta>
        <identifier>
          <value value="1" />
        </identifier>
        <status value="final" />
        <type>
          <coding>
            <system value="http://loinc.org" />
            <code value="64297-5" />
            <display value="Death certificate" />
          </coding>
        </type>
        <subject>
          <reference value="urn:uuid:19c0d941-453a-47ad-b1b7-53b8a438872c" />
        </subject>
        <date value="2019-01-20T16:47:04.4988220-05:00" />
        <attester>
          <mode value="legal" />
          <time value="2019-01-29T16:48:06.4988220-05:00" />
          <party>
            <reference value="urn:uuid:e50531d6-c0bf-4c3b-a0ce-e1687c3ae612" />
          </party>
        </attester>
        <event>
          <code>
            <coding>
              <system value="http://snomed.info/sct" />
              <code value="103693007" />
              <display value="Diagnostic procedure" />
            </coding>
          </code>
          <detail>
            <reference value="urn:uuid:8d5eb2ae-5dfa-4e60-a4b9-68228d55ab9d" />
          </detail>
        </event>
        <section>
          <entry>
            <reference value="urn:uuid:19c0d941-453a-47ad-b1b7-53b8a438872c" />
          </entry>
          <entry>
            <reference value="urn:uuid:e50531d6-c0bf-4c3b-a0ce-e1687c3ae612" />
          </entry>
          <entry>
            <reference value="urn:uuid:a0f9f11d-bd67-455d-8a91-5e321a98fc23" />
          </entry>
          <entry>
            <reference value="urn:uuid:8d5eb2ae-5dfa-4e60-a4b9-68228d55ab9d" />
          </entry>
          <entry>
            <reference value="urn:uuid:112aa7d9-4f98-448f-9a3d-1259b5dcae2b" />
          </entry>
          <entry>
            <reference value="urn:uuid:2843b3bf-3141-4179-808b-5da1ca5ac31a" />
          </entry>
          <entry>
            <reference value="urn:uuid:0365a672-853b-46b4-9874-3918c2b9e9d6" />
          </entry>
          <entry>
            <reference value="urn:uuid:d12bc4d1-16bd-43e8-8696-c68a1fa810df" />
          </entry>
          <entry>
            <reference value="urn:uuid:959ad93e-635e-4e8f-8c8e-73dc91a0784b" />
          </entry>
          <entry>
            <reference value="urn:uuid:7037eb7f-fea2-46cd-b371-aa6efb836719" />
          </entry>
          <entry>
            <reference value="urn:uuid:081734ba-6e89-45bc-a719-efdea87f8297" />
          </entry>
          <entry>
            <reference value="urn:uuid:7d53312d-a36a-4b82-9dc9-a7e93398a127" />
          </entry>
          <entry>
            <reference value="urn:uuid:4646e0a1-bd9a-4061-b5df-46db7d4d5ec7" />
          </entry>
          <entry>
            <reference value="urn:uuid:a7061cca-dfa6-4c1d-a76a-bf71d7b78416" />
          </entry>
          <entry>
            <reference value="urn:uuid:5d1d8df1-5314-4c61-8bee-08fe4d088591" />
          </entry>
          <entry>
            <reference value="urn:uuid:35e733b5-8e8e-472d-ae5b-8e67602446ee" />
          </entry>
          <entry>
            <reference value="urn:uuid:9d7cd981-fd83-471d-88fb-d1b3b4d9c1de" />
          </entry>
          <entry>
            <reference value="urn:uuid:b354a96d-ecec-4664-af47-a32255faef0e" />
          </entry>
          <entry>
            <reference value="urn:uuid:e4b7946b-9f01-4a89-a0ac-8a0659e4ddb3" />
          </entry>
          <entry>
            <reference value="urn:uuid:c7789632-1b4b-43f1-abfc-1bb40d9e09e8" />
          </entry>
          <entry>
            <reference value="urn:uuid:93edc322-f61e-4da4-aa65-fa034ed04f55" />
          </entry>
          <entry>
            <reference value="urn:uuid:2504d90f-9d32-4116-b40b-b689fd85925c" />
          </entry>
          <entry>
            <reference value="urn:uuid:7d163119-b654-4600-b3df-ab67af0bd308" />
          </entry>
          <entry>
            <reference value="urn:uuid:250149b8-ee5f-4c83-9ebb-676a8c518fcf" />
          </entry>
          <entry>
            <reference value="urn:uuid:c6aba9b5-6a1a-4783-8c22-8d3521139ad1" />
          </entry>
          <entry>
            <reference value="urn:uuid:8321264a-7386-44e7-a01b-55ccf2e1ff62" />
          </entry>
          <entry>
            <reference value="urn:uuid:c6463af8-1a67-41d6-9adc-ad3ce54c71a8" />
          </entry>
          <entry>
            <reference value="urn:uuid:bdacc4e9-58cf-4b1d-abae-fafa3c06824a" />
          </entry>
          <entry>
            <reference value="urn:uuid:57f90695-95c5-4753-8276-878818d4426c" />
          </entry>
          <entry>
            <reference value="urn:uuid:26ca48ab-5caf-4b9c-9f38-84e7eedc6e2e" />
          </entry>
          <entry>
            <reference value="urn:uuid:f93267c7-c137-481a-9ae5-c8fea2216261" />
          </entry>
          <entry>
            <reference value="urn:uuid:a67389ba-d69f-4a76-b565-ad450f1c85fc" />
          </entry>
        </section>
      </Composition>
    </resource>
  </entry>
  <entry>
    <fullUrl value="urn:uuid:19c0d941-453a-47ad-b1b7-53b8a438872c" />
    <resource>
      <Patient>
        <id value="urn:uuid:19c0d941-453a-47ad-b1b7-53b8a438872c" />
        <meta>
          <profile value="http://www.hl7.org/fhir/us/vrdr/StructureDefinition/VRDR-Decedent" />
        </meta>
        <extension url="http://hl7.org/fhir/us/core/StructureDefinition/us-core-birthsex">
          <valueCodeableConcept>
            <coding>
              <system value="http://hl7.org/fhir/us/core/ValueSet/us-core-birthsex" />
              <code value="M" />
              <display value="Male" />
            </coding>
          </valueCodeableConcept>
        </extension>
        <extension url="http://hl7.org/fhir/us/core/StructureDefinition/us-core-ethnicity">
          <extension url="text">
            <valueString value="Hispanic or Latino" />
          </extension>
          <extension url="ombCategory">
            <valueCoding>
              <system value="urn:oid:2.16.840.1.113883.6.238" />
              <code value="2135-2" />
              <display value="Hispanic or Latino" />
            </valueCoding>
          </extension>
          <extension url="text">
            <valueString value="Puerto Rican" />
          </extension>
          <extension url="detailed">
            <valueCoding>
              <system value="urn:oid:2.16.840.1.113883.6.238" />
              <code value="2180-8" />
              <display value="Puerto Rican" />
            </valueCoding>
          </extension>
        </extension>
        <extension url="http://hl7.org/fhir/us/core/StructureDefinition/us-core-race">
          <extension url="text">
            <valueString value="White" />
          </extension>
          <extension url="ombCategory">
            <valueCoding>
              <system value="urn:oid:2.16.840.1.113883.6.238" />
              <code value="2106-3" />
              <display value="White" />
            </valueCoding>
          </extension>
          <extension url="text">
            <valueString value="Native Hawaiian or Other Pacific Islander" />
          </extension>
          <extension url="ombCategory">
            <valueCoding>
              <system value="urn:oid:2.16.840.1.113883.6.238" />
              <code value="2076-8" />
              <display value="Native Hawaiian or Other Pacific Islander" />
            </valueCoding>
          </extension>
        </extension>
        <extension url="http://www.hl7.org/fhir/StructureDefinition/birthPlace">
          <valueAddress>
            <line value="1011 Example Street" />
            <line value="Line 2" />
            <city value="Bedford" />
            <district value="Middlesex" />
            <state value="Massachusetts" />
            <postalCode value="01730" />
            <country value="United States" />
          </valueAddress>
        </extension>
        <identifier>
          <type>
            <coding>
              <code value="BR" />
              <display value="Social Beneficiary Identifier" />
            </coding>
          </type>
          <system value="http://hl7.org/fhir/sid/us-ssn" />
          <value value="123456789" />
        </identifier>
        <name>
          <use value="official" />
          <family value="Last" />
          <given value="Example" />
          <given value="Something" />
          <given value="Middle" />
          <suffix value="Jr." />
        </name>
        <gender value="male" />
        <birthDate value="1940-02-19T16:48:06.4988220-05:00" />
        <address>
          <line value="101 Example Street" />
          <line value="Line 2" />
          <city value="Bedford" />
          <district value="Middlesex" />
          <state value="Massachusetts" />
          <postalCode value="01730" />
          <country value="United States" />
        </address>
        <maritalStatus>
          <coding>
            <system value="http://hl7.org/fhir/v3/MaritalStatus" />
            <code value="S" />
            <display value="Never Married" />
          </coding>
        </maritalStatus>
      </Patient>
    </resource>
  </entry>
  <entry>
    <fullUrl value="urn:uuid:e50531d6-c0bf-4c3b-a0ce-e1687c3ae612" />
    <resource>
      <Practitioner>
        <id value="urn:uuid:e50531d6-c0bf-4c3b-a0ce-e1687c3ae612" />
        <meta>
          <profile value="http://www.hl7.org/fhir/us/vrdr/StructureDefinition/VRDR-Certifier" />
        </meta>
        <name>
          <use value="official" />
          <family value="Last" />
          <given value="Doctor" />
          <given value="Middle" />
          <suffix value="Jr." />
        </name>
        <address>
          <line value="11 Example Street" />
          <line value="Line 2" />
          <city value="Bedford" />
          <district value="Middlesex" />
          <state value="Massachusetts" />
          <postalCode value="01730" />
          <country value="United States" />
        </address>
        <qualification>
          <code>
            <coding>
              <system value="http://hl7.org/fhir/v2/0360/2.7" />
              <code value="MD" />
              <display value="Doctor of Medicine" />
            </coding>
          </code>
        </qualification>
      </Practitioner>
    </resource>
  </entry>
  <entry>
    <fullUrl value="urn:uuid:a0f9f11d-bd67-455d-8a91-5e321a98fc23" />
    <resource>
      <Practitioner>
        <id value="urn:uuid:a0f9f11d-bd67-455d-8a91-5e321a98fc23" />
        <meta>
          <profile value="http://www.hl7.org/fhir/us/vrdr/StructureDefinition/VRDR-Mortician" />
        </meta>
        <name>
          <use value="official" />
          <family value="Last" />
          <given value="FD" />
          <given value="Middle" />
          <suffix value="Jr." />
        </name>
        <qualification>
          <identifier>
            <value value="9876543210" />
          </identifier>
        </qualification>
      </Practitioner>
    </resource>
  </entry>
  <entry>
    <fullUrl value="urn:uuid:8d5eb2ae-5dfa-4e60-a4b9-68228d55ab9d" />
    <resource>
      <Procedure>
        <id value="urn:uuid:8d5eb2ae-5dfa-4e60-a4b9-68228d55ab9d" />
        <meta>
          <profile value="http://www.hl7.org/fhir/us/vrdr/StructureDefinition/VRDR-Death-Certification" />
        </meta>
        <status value="completed" />
        <category>
          <coding>
            <system value="http://snomed.info/sct" />
            <code value="103693007" />
            <display value="Diagnostic procedure" />
          </coding>
        </category>
        <code>
          <coding>
            <system value="http://snomed.info/sct" />
            <code value="308646001" />
            <display value="Death certification" />
          </coding>
        </code>
        <performedString value="2019-01-29T16:48:06.4988220-05:00" />
        <performer>
          <role>
            <coding>
              <system value="http://snomed.info/sct" />
              <code value="309343006" />
              <display value="Physician" />
            </coding>
          </role>
          <actor>
            <reference value="urn:uuid:e50531d6-c0bf-4c3b-a0ce-e1687c3ae612" />
          </actor>
        </performer>
      </Procedure>
    </resource>
  </entry>
  <entry>
    <fullUrl value="urn:uuid:112aa7d9-4f98-448f-9a3d-1259b5dcae2b" />
    <resource>
      <Organization>
        <id value="urn:uuid:112aa7d9-4f98-448f-9a3d-1259b5dcae2b" />
        <meta>
          <profile value="http://www.hl7.org/fhir/us/vrdr/StructureDefinition/VRDR-Interested-Party" />
        </meta>
        <identifier>
          <value value="1010101" />
        </identifier>
        <active value="true" />
        <type>
          <coding>
            <system value="http://terminology.hl7.org/CodeSystem/organization-type" />
            <code value="prov" />
            <display value="Healthcare Provider" />
          </coding>
        </type>
        <name value="Example Hospital" />
        <address>
          <line value="10 Example Street" />
          <line value="Line 2" />
          <city value="Bedford" />
          <district value="Middlesex" />
          <state value="Massachusetts" />
          <postalCode value="01730" />
          <country value="United States" />
        </address>
      </Organization>
    </resource>
  </entry>
  <entry>
    <fullUrl value="urn:uuid:2843b3bf-3141-4179-808b-5da1ca5ac31a" />
    <resource>
      <Organization>
        <id value="urn:uuid:2843b3bf-3141-4179-808b-5da1ca5ac31a" />
        <meta>
          <profile value="http://www.hl7.org/fhir/us/vrdr/StructureDefinition/VRDR-Funeral-Home" />
        </meta>
        <type>
          <coding>
            <code value="bus" />
            <display value="Non-Healthcare Business or Corporation" />
          </coding>
        </type>
        <name value="Smith Funeral Home" />
        <address>
          <line value="1011010 Example Street" />
          <line value="Line 2" />
          <city value="Bedford" />
          <district value="Middlesex" />
          <state value="Massachusetts" />
          <postalCode value="01730" />
          <country value="United States" />
        </address>
      </Organization>
    </resource>
  </entry>
  <entry>
    <fullUrl value="urn:uuid:0365a672-853b-46b4-9874-3918c2b9e9d6" />
    <resource>
      <PractitionerRole>
        <id value="urn:uuid:0365a672-853b-46b4-9874-3918c2b9e9d6" />
        <meta>
          <profile value="http://www.hl7.org/fhir/us/vrdr/StructureDefinition/VRDR-Funeral-Home-Director" />
        </meta>
        <practitioner>
          <reference value="urn:uuid:a0f9f11d-bd67-455d-8a91-5e321a98fc23" />
        </practitioner>
        <organization>
          <reference value="urn:uuid:2843b3bf-3141-4179-808b-5da1ca5ac31a" />
        </organization>
      </PractitionerRole>
    </resource>
  </entry>
  <entry>
    <fullUrl value="urn:uuid:d12bc4d1-16bd-43e8-8696-c68a1fa810df" />
    <resource>
      <List>
        <id value="urn:uuid:d12bc4d1-16bd-43e8-8696-c68a1fa810df" />
        <meta>
          <profile value="http://www.hl7.org/fhir/us/vrdr/StructureDefinition/VRDR-Cause-of-Death-Pathway" />
        </meta>
        <status value="current" />
        <mode value="snapshot" />
        <source>
          <reference value="urn:uuid:e50531d6-c0bf-4c3b-a0ce-e1687c3ae612" />
        </source>
        <orderedBy>
          <coding>
            <code value="priority" />
          </coding>
        </orderedBy>
        <entry>
          <item>
            <reference value="urn:uuid:7d53312d-a36a-4b82-9dc9-a7e93398a127" />
          </item>
        </entry>
        <entry>
          <item>
            <reference value="urn:uuid:4646e0a1-bd9a-4061-b5df-46db7d4d5ec7" />
          </item>
        </entry>
        <entry>
          <item>
            <reference value="urn:uuid:a7061cca-dfa6-4c1d-a76a-bf71d7b78416" />
          </item>
        </entry>
        <entry>
          <item>
            <reference value="urn:uuid:5d1d8df1-5314-4c61-8bee-08fe4d088591" />
          </item>
        </entry>
      </List>
    </resource>
  </entry>
  <entry>
    <fullUrl value="urn:uuid:959ad93e-635e-4e8f-8c8e-73dc91a0784b" />
    <resource>
      <Location>
        <id value="urn:uuid:959ad93e-635e-4e8f-8c8e-73dc91a0784b" />
        <meta>
          <profile value="http://www.hl7.org/fhir/us/vrdr/StructureDefinition/VRDR-Disposition-Location" />
        </meta>
        <name value="Bedford Cemetery" />
        <address>
          <line value="603 Example Street" />
          <line value="Line 2" />
          <city value="Bedford" />
          <district value="Middlesex" />
          <state value="Massachusetts" />
          <postalCode value="01730" />
          <country value="United States" />
        </address>
      </Location>
    </resource>
  </entry>
  <entry>
    <fullUrl value="urn:uuid:7037eb7f-fea2-46cd-b371-aa6efb836719" />
    <resource>
      <Observation>
        <id value="urn:uuid:7037eb7f-fea2-46cd-b371-aa6efb836719" />
        <meta>
          <profile value="http://www.hl7.org/fhir/us/vrdr/StructureDefinition/VRDR-Manner-of-Death" />
        </meta>
        <status value="final" />
        <code>
          <coding>
            <system value="http://loinc.org" />
            <code value="69449-7" />
            <display value="Manner of death" />
          </coding>
        </code>
        <subject>
          <reference value="urn:uuid:19c0d941-453a-47ad-b1b7-53b8a438872c" />
        </subject>
        <performer>
          <reference value="urn:uuid:e50531d6-c0bf-4c3b-a0ce-e1687c3ae612" />
        </performer>
        <valueCodeableConcept>
          <coding>
            <code value="7878000" />
            <display value="Accident" />
          </coding>
        </valueCodeableConcept>
      </Observation>
    </resource>
  </entry>
  <entry>
    <fullUrl value="urn:uuid:081734ba-6e89-45bc-a719-efdea87f8297" />
    <resource>
      <Condition>
        <id value="urn:uuid:081734ba-6e89-45bc-a719-efdea87f8297" />
        <meta>
          <profile value="http://www.hl7.org/fhir/us/vrdr/StructureDefinition/VRDR-Condition-Contributing-To-Death" />
        </meta>
        <code>
          <text value="Example Contributing Conditions" />
        </code>
        <subject>
          <reference value="urn:uuid:19c0d941-453a-47ad-b1b7-53b8a438872c" />
        </subject>
      </Condition>
    </resource>
  </entry>
  <entry>
    <fullUrl value="urn:uuid:7d53312d-a36a-4b82-9dc9-a7e93398a127" />
    <resource>
      <Condition>
        <id value="urn:uuid:7d53312d-a36a-4b82-9dc9-a7e93398a127" />
        <meta>
          <profile value="http://www.hl7.org/fhir/us/vrdr/StructureDefinition/VRDR-Cause-Of-Death-Condition" />
        </meta>
        <code>
          <coding>
            <system value="http://hl7.org/fhir/sid/icd-10" />
            <code value="I21.0" />
            <display value="Acute transmural myocardial infarction of anterior wall" />
          </coding>
          <text value="Rupture of myocardium" />
        </code>
        <subject>
          <reference value="urn:uuid:19c0d941-453a-47ad-b1b7-53b8a438872c" />
        </subject>
        <onsetString value="minutes" />
        <asserter>
          <reference value="urn:uuid:e50531d6-c0bf-4c3b-a0ce-e1687c3ae612" />
        </asserter>
      </Condition>
    </resource>
  </entry>
  <entry>
    <fullUrl value="urn:uuid:4646e0a1-bd9a-4061-b5df-46db7d4d5ec7" />
    <resource>
      <Condition>
        <id value="urn:uuid:4646e0a1-bd9a-4061-b5df-46db7d4d5ec7" />
        <meta>
          <profile value="http://www.hl7.org/fhir/us/vrdr/StructureDefinition/VRDR-Cause-Of-Death-Condition" />
        </meta>
        <code>
          <coding>
            <system value="http://hl7.org/fhir/sid/icd-10" />
            <code value="I21.9" />
            <display value="Acute myocardial infarction, unspecified" />
          </coding>
          <text value="Acute myocardial infarction" />
        </code>
        <subject>
          <reference value="urn:uuid:19c0d941-453a-47ad-b1b7-53b8a438872c" />
        </subject>
        <onsetString value="6 days" />
        <asserter>
          <reference value="urn:uuid:e50531d6-c0bf-4c3b-a0ce-e1687c3ae612" />
        </asserter>
      </Condition>
    </resource>
  </entry>
  <entry>
    <fullUrl value="urn:uuid:a7061cca-dfa6-4c1d-a76a-bf71d7b78416" />
    <resource>
      <Condition>
        <id value="urn:uuid:a7061cca-dfa6-4c1d-a76a-bf71d7b78416" />
        <meta>
          <profile value="http://www.hl7.org/fhir/us/vrdr/StructureDefinition/VRDR-Cause-Of-Death-Condition" />
        </meta>
        <code>
          <text value="Coronary artery thrombosis" />
        </code>
        <subject>
          <reference value="urn:uuid:19c0d941-453a-47ad-b1b7-53b8a438872c" />
        </subject>
        <onsetString value="5 years" />
        <asserter>
          <reference value="urn:uuid:e50531d6-c0bf-4c3b-a0ce-e1687c3ae612" />
        </asserter>
      </Condition>
    </resource>
  </entry>
  <entry>
    <fullUrl value="urn:uuid:5d1d8df1-5314-4c61-8bee-08fe4d088591" />
    <resource>
      <Condition>
        <id value="urn:uuid:5d1d8df1-5314-4c61-8bee-08fe4d088591" />
        <meta>
          <profile value="http://www.hl7.org/fhir/us/vrdr/StructureDefinition/VRDR-Cause-Of-Death-Condition" />
        </meta>
        <code>
          <text value="Atherosclerotic coronary artery disease" />
        </code>
        <subject>
          <reference value="urn:uuid:19c0d941-453a-47ad-b1b7-53b8a438872c" />
        </subject>
        <onsetString value="7 years" />
        <asserter>
          <reference value="urn:uuid:e50531d6-c0bf-4c3b-a0ce-e1687c3ae612" />
        </asserter>
      </Condition>
    </resource>
  </entry>
  <entry>
    <fullUrl value="urn:uuid:35e733b5-8e8e-472d-ae5b-8e67602446ee" />
    <resource>
      <RelatedPerson>
        <id value="urn:uuid:35e733b5-8e8e-472d-ae5b-8e67602446ee" />
        <meta>
          <profile value="http://www.hl7.org/fhir/us/vrdr/StructureDefinition/VRDR-Decedent-Father" />
        </meta>
        <patient>
          <reference value="urn:uuid:19c0d941-453a-47ad-b1b7-53b8a438872c" />
        </patient>
        <relationship>
          <coding>
            <code value="FTH" />
          </coding>
        </relationship>
        <name>
          <family value="Last" />
          <given value="Father" />
          <given value="Middle" />
          <suffix value="Sr." />
        </name>
      </RelatedPerson>
    </resource>
  </entry>
  <entry>
    <fullUrl value="urn:uuid:9d7cd981-fd83-471d-88fb-d1b3b4d9c1de" />
    <resource>
      <RelatedPerson>
        <id value="urn:uuid:9d7cd981-fd83-471d-88fb-d1b3b4d9c1de" />
        <meta>
          <profile value="http://www.hl7.org/fhir/us/vrdr/StructureDefinition/VRDR-Decedent-Mother" />
        </meta>
        <patient>
          <reference value="urn:uuid:19c0d941-453a-47ad-b1b7-53b8a438872c" />
        </patient>
        <relationship>
          <coding>
            <code value="MTH" />
          </coding>
        </relationship>
        <name>
          <family value="Maiden" />
          <given value="Mother" />
          <given value="Middle" />
          <suffix value="Dr." />
        </name>
      </RelatedPerson>
    </resource>
  </entry>
  <entry>
    <fullUrl value="urn:uuid:b354a96d-ecec-4664-af47-a32255faef0e" />
    <resource>
      <RelatedPerson>
        <id value="urn:uuid:b354a96d-ecec-4664-af47-a32255faef0e" />
        <meta>
          <profile value="http://www.hl7.org/fhir/us/vrdr/StructureDefinition/VRDR-Decedent-Spouse" />
        </meta>
        <patient>
          <reference value="urn:uuid:19c0d941-453a-47ad-b1b7-53b8a438872c" />
        </patient>
        <relationship>
          <coding>
            <code value="SPS" />
          </coding>
        </relationship>
        <name>
          <family value="Last" />
          <given value="Spouse" />
          <given value="Middle" />
          <suffix value="Ph.D." />
        </name>
      </RelatedPerson>
    </resource>
  </entry>
  <entry>
    <fullUrl value="urn:uuid:e4b7946b-9f01-4a89-a0ac-8a0659e4ddb3" />
    <resource>
      <Observation>
        <id value="urn:uuid:e4b7946b-9f01-4a89-a0ac-8a0659e4ddb3" />
        <meta>
          <profile value="http://www.hl7.org/fhir/us/vrdr/StructureDefinition/VRDR-Decedent-Education-Level" />
        </meta>
        <status value="final" />
        <code>
          <coding>
            <system value="http://loinc.org" />
            <code value="80913-7" />
            <display value="Highest level of education" />
          </coding>
        </code>
        <subject>
          <reference value="urn:uuid:19c0d941-453a-47ad-b1b7-53b8a438872c" />
        </subject>
        <valueCodeableConcept>
          <coding>
            <system value="http://hl7.org/fhir/v3/EducationLevel" />
            <code value="BD" />
            <display value="College or baccalaureate degree complete" />
          </coding>
        </valueCodeableConcept>
      </Observation>
    </resource>
  </entry>
  <entry>
    <fullUrl value="urn:uuid:c7789632-1b4b-43f1-abfc-1bb40d9e09e8" />
    <resource>
      <Observation>
        <id value="urn:uuid:c7789632-1b4b-43f1-abfc-1bb40d9e09e8" />
        <meta>
          <profile value="http://www.hl7.org/fhir/us/vrdr/StructureDefinition/VRDR-Birth-Record-Identifier" />
        </meta>
        <status value="final" />
        <code>
          <coding>
            <code value="BR" />
          </coding>
        </code>
        <subject>
          <reference value="urn:uuid:19c0d941-453a-47ad-b1b7-53b8a438872c" />
        </subject>
        <valueString value="4242123" />
      </Observation>
    </resource>
  </entry>
  <entry>
    <fullUrl value="urn:uuid:93edc322-f61e-4da4-aa65-fa034ed04f55" />
    <resource>
      <Observation>
        <id value="urn:uuid:93edc322-f61e-4da4-aa65-fa034ed04f55" />
        <meta>
          <profile value="http://www.hl7.org/fhir/us/vrdr/StructureDefinition/VRDR-Decedent-Employment-History" />
        </meta>
        <status value="final" />
        <code>
          <coding>
            <system value="http://loinc.org" />
            <code value="74165-2" />
            <display value="History of employment status" />
          </coding>
        </code>
        <subject>
          <reference value="urn:uuid:19c0d941-453a-47ad-b1b7-53b8a438872c" />
        </subject>
        <component>
          <code>
            <coding>
              <system value="http://loinc.org" />
              <code value="21847-9" />
              <display value="Usual occupation" />
            </coding>
          </code>
          <valueCodeableConcept>
            <coding>
              <system value="http://www.hl7.org/fhir/ValueSet/Usual-occupation" />
              <code value="7280" />
              <display value="Accounting, tax preparation, bookkeeping, and payroll services" />
            </coding>
          </valueCodeableConcept>
        </component>
        <component>
          <code>
            <coding>
              <system value="http://loinc.org" />
              <code value="21844-6" />
              <display value="Usual industry" />
            </coding>
          </code>
          <valueCodeableConcept>
            <coding>
              <system value="http://www.hl7.org/fhir/ValueSet/industry-cdc-census-2010" />
              <code value="1320" />
              <display value="Aerospace engineers" />
            </coding>
          </valueCodeableConcept>
        </component>
        <component>
          <code>
            <coding>
              <system value="http://loinc.org" />
              <code value="55280-2" />
              <display value="Military service" />
            </coding>
          </code>
          <valueCodeableConcept>
            <coding>
              <system value="http://www.hl7.org/fhir/ValueSet/v2-0532" />
              <code value="Y" />
              <display value="Yes" />
            </coding>
          </valueCodeableConcept>
        </component>
      </Observation>
    </resource>
  </entry>
  <entry>
    <fullUrl value="urn:uuid:2504d90f-9d32-4116-b40b-b689fd85925c" />
    <resource>
      <Observation>
        <id value="urn:uuid:2504d90f-9d32-4116-b40b-b689fd85925c" />
        <meta>
          <profile value="http://www.hl7.org/fhir/us/vrdr/StructureDefinition/VRDR-Decedent-Disposition-Method" />
        </meta>
        <extension url="http://www.hl7.org/fhir/us/vrdr/StructureDefinition/VRDR-Disposition-Location">
          <valueReference>
            <reference value="urn:uuid:959ad93e-635e-4e8f-8c8e-73dc91a0784b" />
          </valueReference>
        </extension>
        <status value="final" />
        <code>
          <coding>
            <system value="http://loinc.org" />
            <code value="80905-3" />
            <display value="Body disposition method" />
          </coding>
        </code>
        <subject>
          <reference value="urn:uuid:19c0d941-453a-47ad-b1b7-53b8a438872c" />
        </subject>
        <performer>
          <reference value="urn:uuid:a0f9f11d-bd67-455d-8a91-5e321a98fc23" />
        </performer>
        <valueCodeableConcept>
          <coding>
            <system value="http://snomed.info/sct" />
            <code value="449971000124106" />
            <display value="Burial" />
          </coding>
        </valueCodeableConcept>
      </Observation>
    </resource>
  </entry>
  <entry>
    <fullUrl value="urn:uuid:7d163119-b654-4600-b3df-ab67af0bd308" />
    <resource>
      <Observation>
        <id value="urn:uuid:7d163119-b654-4600-b3df-ab67af0bd308" />
        <meta>
          <profile value="http://www.hl7.org/fhir/us/vrdr/StructureDefinition/VRDR-Autopsy-Performed-Indicator" />
        </meta>
        <status value="final" />
        <code>
          <coding>
            <system value="http://loinc.org" />
            <code value="85699-7" />
            <display value="Autopsy was performed" />
          </coding>
        </code>
        <subject>
          <reference value="urn:uuid:19c0d941-453a-47ad-b1b7-53b8a438872c" />
        </subject>
        <valueCodeableConcept>
          <coding>
            <system value="http://www.hl7.org/fhir/ValueSet/v2-0532" />
            <code value="Y" />
            <display value="Yes" />
          </coding>
        </valueCodeableConcept>
        <component>
          <code>
            <coding>
              <system value="http://loinc.org" />
              <code value="69436-4" />
              <display value="Autopsy results available" />
            </coding>
          </code>
          <valueCodeableConcept>
            <coding>
              <system value="http://www.hl7.org/fhir/ValueSet/v2-0532" />
              <code value="Y" />
              <display value="Yes" />
            </coding>
          </valueCodeableConcept>
        </component>
      </Observation>
    </resource>
  </entry>
  <entry>
    <fullUrl value="urn:uuid:250149b8-ee5f-4c83-9ebb-676a8c518fcf" />
    <resource>
      <Observation>
        <id value="urn:uuid:250149b8-ee5f-4c83-9ebb-676a8c518fcf" />
        <meta>
          <profile value="http://www.hl7.org/fhir/us/vrdr/StructureDefinition/VRDR-Decedent-Age" />
        </meta>
        <status value="final" />
        <code>
          <coding>
            <system value="http://loinc.org" />
            <code value="30525-0" />
            <display value="Age" />
          </coding>
        </code>
        <subject>
          <reference value="urn:uuid:19c0d941-453a-47ad-b1b7-53b8a438872c" />
        </subject>
        <valueQuantity>
          <value value="100" />
          <unit value="a" />
        </valueQuantity>
      </Observation>
    </resource>
  </entry>
  <entry>
    <fullUrl value="urn:uuid:c6aba9b5-6a1a-4783-8c22-8d3521139ad1" />
    <resource>
      <Observation>
        <id value="urn:uuid:c6aba9b5-6a1a-4783-8c22-8d3521139ad1" />
        <meta>
          <profile value="http://www.hl7.org/fhir/us/vrdr/StructureDefinition/VRDR-Decedent-Pregnancy" />
        </meta>
        <status value="final" />
        <code>
          <coding>
            <system value="http://loinc.org" />
            <code value="69442-2" />
            <display value="Timing of recent pregnancy in relation to death" />
          </coding>
        </code>
        <subject>
          <reference value="urn:uuid:19c0d941-453a-47ad-b1b7-53b8a438872c" />
        </subject>
        <valueCodeableConcept>
          <coding>
            <system value="http://www.hl7.org/fhir/stu3/valueset-PregnancyStatusVS" />
            <code value="PHC1260" />
            <display value="Not pregnant within past year" />
          </coding>
        </valueCodeableConcept>
      </Observation>
    </resource>
  </entry>
  <entry>
    <fullUrl value="urn:uuid:8321264a-7386-44e7-a01b-55ccf2e1ff62" />
    <resource>
      <Observation>
        <id value="urn:uuid:8321264a-7386-44e7-a01b-55ccf2e1ff62" />
        <meta>
          <profile value="http://www.hl7.org/fhir/us/vrdr/StructureDefinition/VRDR-Decedent-Transportation-Role" />
        </meta>
        <status value="final" />
        <code>
          <coding>
            <system value="http://loinc.org" />
            <code value="69451-3" />
            <display value="Transportation role of decedent" />
          </coding>
        </code>
        <subject>
          <reference value="urn:uuid:19c0d941-453a-47ad-b1b7-53b8a438872c" />
        </subject>
        <valueCodeableConcept>
          <coding>
            <system value="http://www.hl7.org/fhir/stu3/valueset-TransportationRelationships" />
            <code value="example-code" />
            <display value="Example Code" />
          </coding>
        </valueCodeableConcept>
      </Observation>
    </resource>
  </entry>
  <entry>
    <fullUrl value="urn:uuid:c6463af8-1a67-41d6-9adc-ad3ce54c71a8" />
    <resource>
      <Observation>
        <id value="urn:uuid:c6463af8-1a67-41d6-9adc-ad3ce54c71a8" />
        <meta>
          <profile value="http://www.hl7.org/fhir/us/vrdr/StructureDefinition/VRDR-Examiner-Contacted" />
        </meta>
        <status value="final" />
        <code>
          <coding>
            <system value="http://loinc.org" />
            <code value="74497-9" />
            <display value="Medical examiner or coroner was contacted" />
          </coding>
        </code>
        <subject>
          <reference value="urn:uuid:19c0d941-453a-47ad-b1b7-53b8a438872c" />
        </subject>
        <valueBoolean value="false" />
      </Observation>
    </resource>
  </entry>
  <entry>
    <fullUrl value="urn:uuid:bdacc4e9-58cf-4b1d-abae-fafa3c06824a" />
    <resource>
      <Observation>
        <id value="urn:uuid:bdacc4e9-58cf-4b1d-abae-fafa3c06824a" />
        <meta>
          <profile value="http://www.hl7.org/fhir/us/vrdr/StructureDefinition/VRDR-Tobacco-Use-Contributed-To-Death" />
        </meta>
        <status value="final" />
        <code>
          <coding>
            <system value="http://loinc.org" />
            <code value="69443-0" />
            <display value="Did tobacco use contribute to death" />
          </coding>
        </code>
        <subject>
          <reference value="urn:uuid:19c0d941-453a-47ad-b1b7-53b8a438872c" />
        </subject>
        <valueCodeableConcept>
          <coding>
            <system value="http://www.hl7.org/fhir/ValueSet/v2-0532" />
            <code value="Y" />
            <display value="Yes" />
          </coding>
        </valueCodeableConcept>
      </Observation>
    </resource>
  </entry>
  <entry>
    <fullUrl value="urn:uuid:57f90695-95c5-4753-8276-878818d4426c" />
    <resource>
      <Location>
        <id value="urn:uuid:57f90695-95c5-4753-8276-878818d4426c" />
        <meta>
          <profile value="http://www.hl7.org/fhir/us/vrdr/StructureDefinition/VRDR-Injury-Location" />
        </meta>
        <name value="Example Injury Location Name" />
        <description value="Example Injury Location Description" />
        <address>
          <line value="781 Example Street" />
          <line value="Line 2" />
          <city value="Bedford" />
          <district value="Middlesex" />
          <state value="Massachusetts" />
          <postalCode value="01730" />
          <country value="United States" />
        </address>
      </Location>
    </resource>
  </entry>
  <entry>
    <fullUrl value="urn:uuid:26ca48ab-5caf-4b9c-9f38-84e7eedc6e2e" />
    <resource>
      <Observation>
        <id value="urn:uuid:26ca48ab-5caf-4b9c-9f38-84e7eedc6e2e" />
        <meta>
          <profile value="http://www.hl7.org/fhir/us/vrdr/StructureDefinition/VRDR-Injury-Incident" />
        </meta>
        <status value="final" />
        <code>
          <coding>
            <system value="http://loinc.org" />
            <code value="11374-6" />
            <display value="Injury incident description" />
          </coding>
        </code>
        <subject>
          <reference value="urn:uuid:19c0d941-453a-47ad-b1b7-53b8a438872c" />
        </subject>
        <effectiveDateTime value="2018-02-19T16:48:06.4988220-05:00" />
      </Observation>
    </resource>
  </entry>
  <entry>
    <fullUrl value="urn:uuid:f93267c7-c137-481a-9ae5-c8fea2216261" />
    <resource>
      <Location>
        <id value="urn:uuid:f93267c7-c137-481a-9ae5-c8fea2216261" />
        <meta>
          <profile value="http://www.hl7.org/fhir/us/vrdr/StructureDefinition/VRDR-Death-Location" />
        </meta>
        <name value="Example Death Location Name" />
        <description value="Example Death Location Description" />
        <address>
          <line value="671 Example Street" />
          <line value="Line 2" />
          <city value="Bedford" />
          <district value="Middlesex" />
          <state value="Massachusetts" />
          <postalCode value="01730" />
          <country value="United States" />
        </address>
      </Location>
    </resource>
  </entry>
  <entry>
    <fullUrl value="urn:uuid:a67389ba-d69f-4a76-b565-ad450f1c85fc" />
    <resource>
      <Observation>
        <id value="urn:uuid:a67389ba-d69f-4a76-b565-ad450f1c85fc" />
        <meta>
          <profile value="http://www.hl7.org/fhir/us/vrdr/StructureDefinition/VRDR-Death-Date" />
        </meta>
        <status value="final" />
        <code>
          <coding>
            <system value="http://loinc.org" />
            <code value="81956-5" />
            <display value="Date and time of death" />
          </coding>
        </code>
        <subject>
          <reference value="urn:uuid:19c0d941-453a-47ad-b1b7-53b8a438872c" />
        </subject>
        <effectiveDateTime value="2018-02-19T16:48:06.4988220-05:00" />
        <performer>
          <reference value="urn:uuid:e50531d6-c0bf-4c3b-a0ce-e1687c3ae612" />
        </performer>
        <component>
          <code>
            <coding>
              <system value="http://loinc.org" />
              <code value="80616-6" />
              <display value="Date and time pronounced dead" />
            </coding>
          </code>
          <valueDateTime value="2018-02-20T16:48:06.4988220-05:00" />
        </component>
      </Observation>
    </resource>
  </entry>
</Bundle>


