<Bundle xmlns="http://hl7.org/fhir">
  <id value="urn:uuid:c5b13642-bccf-483b-89ae-06e1307adaec" />
  <meta>
    <profile value="http://hl7.org/fhir/us/vrdr/StructureDefinition/VRDR-Death-Certificate-Document" />
  </meta>
  <identifier>
    <value value="42" />
  </identifier>
  <type value="document" />
  <entry>
    <fullUrl value="urn:uuid:ffe0ef1e-9706-481a-bd87-49f5070deb85" />
    <resource>
      <Composition>
        <id value="urn:uuid:ffe0ef1e-9706-481a-bd87-49f5070deb85" />
        <meta>
          <profile value="http://hl7.org/fhir/us/vrdr/StructureDefinition/VRDR-Death-Certificate" />
        </meta>
        <identifier>
          <value value="1" />
        </identifier>
        <status value="final" />
        <type>
          <coding>
            <system value="http://loinc.org" />
            <code value="64297-5" />
            <display value="Death certificate" />
          </coding>
        </type>
        <subject>
          <reference value="urn:uuid:e6e50850-3fc1-4970-8308-6bc868ffd805" />
        </subject>
        <date value="2019-01-20T16:47:04.4988220-05:00" />
        <attester>
          <mode value="legal" />
          <time value="2019-01-29T16:48:06.4988220-05:00" />
          <party>
            <reference value="urn:uuid:771b012e-4a95-4a28-938d-ae3a3de09a6e" />
          </party>
        </attester>
        <event>
          <code>
            <coding>
              <system value="http://snomed.info/sct" />
              <code value="103693007" />
              <display value="Diagnostic procedure" />
            </coding>
          </code>
          <detail>
            <reference value="urn:uuid:7e1fe702-b7be-437a-820d-72d85e140704" />
          </detail>
        </event>
        <section>
          <entry>
            <reference value="urn:uuid:e6e50850-3fc1-4970-8308-6bc868ffd805" />
          </entry>
          <entry>
            <reference value="urn:uuid:771b012e-4a95-4a28-938d-ae3a3de09a6e" />
          </entry>
          <entry>
            <reference value="urn:uuid:6dd650ee-d271-4998-98fe-da868b11db4f" />
          </entry>
          <entry>
            <reference value="urn:uuid:7e1fe702-b7be-437a-820d-72d85e140704" />
          </entry>
          <entry>
            <reference value="urn:uuid:553386f0-67c3-4c57-9cc0-75563d375aa3" />
          </entry>
          <entry>
            <reference value="urn:uuid:8102186d-7f6e-47bd-a5db-a9e9ef6d68f3" />
          </entry>
          <entry>
            <reference value="urn:uuid:1026a26f-bee0-4600-bcde-8cfa8808825b" />
          </entry>
          <entry>
            <reference value="urn:uuid:364d3572-ad57-48f8-8527-385c4d47f316" />
          </entry>
          <entry>
            <reference value="urn:uuid:acb05b44-b183-4822-b96e-4934d22a2a74" />
          </entry>
          <entry>
            <reference value="urn:uuid:54ebd2d8-5c2d-4f6c-bd13-cee315361136" />
          </entry>
          <entry>
            <reference value="urn:uuid:0b3d7849-44f5-4a01-ae02-1e78c0553c9f" />
          </entry>
          <entry>
            <reference value="urn:uuid:ced4c853-5672-4eb8-bd4d-14af61accd63" />
          </entry>
          <entry>
            <reference value="urn:uuid:ca697fd4-8da4-4bae-b3ff-353813ff801b" />
          </entry>
          <entry>
            <reference value="urn:uuid:43a0fdb0-4560-4b13-86c5-0461339d5db8" />
          </entry>
          <entry>
            <reference value="urn:uuid:62a7b26d-5ce9-4515-a3a5-c5f5923c5ecb" />
          </entry>
          <entry>
            <reference value="urn:uuid:8f322527-4bc9-4ad4-be26-94b78815f9b8" />
          </entry>
          <entry>
            <reference value="urn:uuid:fc3c59ca-4dcf-4bb7-b6f1-4cc40ee992fe" />
          </entry>
          <entry>
            <reference value="urn:uuid:9bbbf0f4-4394-4e92-b0eb-07ffa5e6fd4d" />
          </entry>
          <entry>
            <reference value="urn:uuid:1da59696-119e-4f62-a866-31af48aebede" />
          </entry>
          <entry>
            <reference value="urn:uuid:e4fbfac1-4c43-4b8c-a657-2cc21ca9a1dd" />
          </entry>
          <entry>
            <reference value="urn:uuid:e0984cd4-3823-4aab-9365-c191405566fe" />
          </entry>
          <entry>
            <reference value="urn:uuid:98b53157-3805-4c89-908d-1efa28f4f95e" />
          </entry>
          <entry>
            <reference value="urn:uuid:67bc756e-4459-4d7b-adbe-a4e6dc57499c" />
          </entry>
          <entry>
            <reference value="urn:uuid:b0d0922e-dd96-466c-8a90-4211a54dd2ac" />
          </entry>
          <entry>
            <reference value="urn:uuid:2b8f6d27-68a0-495c-ba49-559029e53c1b" />
          </entry>
          <entry>
            <reference value="urn:uuid:cb009c79-97b7-432e-b0e2-42f50fc7926c" />
          </entry>
          <entry>
            <reference value="urn:uuid:c1cdc151-855e-46c8-93ec-b9a052a8e305" />
          </entry>
          <entry>
            <reference value="urn:uuid:0b515c90-46e9-48cc-a206-dab7ab708af1" />
          </entry>
          <entry>
            <reference value="urn:uuid:80b03015-40bf-4e0d-a1db-ac54a53cabc1" />
          </entry>
          <entry>
            <reference value="urn:uuid:c4db1eed-fbfe-46d5-a3f9-7b0c7d935ee9" />
          </entry>
          <entry>
            <reference value="urn:uuid:59cc2fb5-5783-45cd-b375-729a12c38d3f" />
          </entry>
          <entry>
            <reference value="urn:uuid:c6bb8c8d-252a-4575-b27a-8e088d5394d5" />
          </entry>
        </section>
      </Composition>
    </resource>
  </entry>
  <entry>
    <fullUrl value="urn:uuid:e6e50850-3fc1-4970-8308-6bc868ffd805" />
    <resource>
      <Patient>
        <id value="urn:uuid:e6e50850-3fc1-4970-8308-6bc868ffd805" />
        <meta>
          <profile value="http://hl7.org/fhir/us/vrdr/StructureDefinition/VRDR-Decedent" />
        </meta>
        <extension url="http://hl7.org/fhir/us/core/StructureDefinition/us-core-birthsex">
          <valueCodeableConcept>
            <coding>
              <system value="http://hl7.org/fhir/us/core/ValueSet/us-core-birthsex" />
              <code value="M" />
              <display value="Male" />
            </coding>
          </valueCodeableConcept>
        </extension>
        <extension url="http://hl7.org/fhir/us/core/StructureDefinition/us-core-ethnicity">
          <extension url="ombCategory">
            <valueCoding>
              <system value="urn:oid:2.16.840.1.113883.6.238" />
              <code value="2135-2" />
              <display value="Hispanic or Latino" />
            </valueCoding>
          </extension>
          <extension url="detailed">
            <valueCoding>
              <system value="urn:oid:2.16.840.1.113883.6.238" />
              <code value="2180-8" />
              <display value="Puerto Rican" />
            </valueCoding>
          </extension>
          <extension url="text">
            <valueString value="Hispanic or Latino, Puerto Rican" />
          </extension>
        </extension>
        <extension url="http://hl7.org/fhir/us/core/StructureDefinition/us-core-race">
          <extension url="ombCategory">
            <valueCoding>
              <system value="urn:oid:2.16.840.1.113883.6.238" />
              <code value="2106-3" />
              <display value="White" />
            </valueCoding>
          </extension>
          <extension url="ombCategory">
            <valueCoding>
              <system value="urn:oid:2.16.840.1.113883.6.238" />
              <code value="2076-8" />
              <display value="Native Hawaiian or Other Pacific Islander" />
            </valueCoding>
          </extension>
          <extension url="text">
            <valueString value="White, Native Hawaiian or Other Pacific Islander" />
          </extension>
        </extension>
        <extension url="http://hl7.org/fhir/StructureDefinition/birthPlace">
          <valueAddress>
            <line value="1011 Example Street" />
            <line value="Line 2" />
            <city value="Bedford" />
            <district value="Middlesex" />
            <state value="Massachusetts" />
            <postalCode value="01730" />
            <country value="United States" />
          </valueAddress>
        </extension>
        <identifier>
          <type>
            <coding>
              <code value="BR" />
              <display value="Social Beneficiary Identifier" />
            </coding>
          </type>
          <system value="http://hl7.org/fhir/sid/us-ssn" />
          <value value="123456789" />
        </identifier>
        <name>
          <use value="official" />
          <family value="Last" />
          <given value="Example" />
          <given value="Something" />
          <given value="Middle" />
          <suffix value="Jr." />
        </name>
        <name>
          <use value="nickname" />
          <family value="LastNameAlias" />
          <given value="FirstNameAlias" />
          <given value="MiddleAlias" />
          <suffix value="Jr." />
        </name>
        <gender value="male" />
        <birthDate value="1940-02-19T16:48:06.4988220-05:00" />
        <address>
          <line value="101 Example Street" />
          <line value="Line 2" />
          <city value="Bedford" />
          <district value="Middlesex" />
          <state value="Massachusetts" />
          <postalCode value="01730" />
          <country value="United States" />
        </address>
        <maritalStatus>
          <coding>
            <system value="http://hl7.org/fhir/v3/MaritalStatus" />
            <code value="S" />
            <display value="Never Married" />
          </coding>
        </maritalStatus>
      </Patient>
    </resource>
  </entry>
  <entry>
    <fullUrl value="urn:uuid:771b012e-4a95-4a28-938d-ae3a3de09a6e" />
    <resource>
      <Practitioner>
        <id value="urn:uuid:771b012e-4a95-4a28-938d-ae3a3de09a6e" />
        <meta>
          <profile value="http://hl7.org/fhir/us/vrdr/StructureDefinition/VRDR-Certifier" />
        </meta>
        <name>
          <use value="official" />
          <family value="Last" />
          <given value="Doctor" />
          <given value="Middle" />
          <suffix value="Jr." />
        </name>
        <address>
          <line value="11 Example Street" />
          <line value="Line 2" />
          <city value="Bedford" />
          <district value="Middlesex" />
          <state value="Massachusetts" />
          <postalCode value="01730" />
          <country value="United States" />
        </address>
        <qualification>
          <identifier>
            <value value="789123456" />
          </identifier>
          <code>
            <coding>
              <system value="http://hl7.org/fhir/v2/0360/2.7" />
              <code value="MD" />
              <display value="Doctor of Medicine" />
            </coding>
          </code>
        </qualification>
      </Practitioner>
    </resource>
  </entry>
  <entry>
    <fullUrl value="urn:uuid:6dd650ee-d271-4998-98fe-da868b11db4f" />
    <resource>
      <Practitioner>
        <id value="urn:uuid:6dd650ee-d271-4998-98fe-da868b11db4f" />
        <meta>
          <profile value="http://hl7.org/fhir/us/vrdr/StructureDefinition/VRDR-Mortician" />
        </meta>
        <name>
          <use value="official" />
          <family value="Last" />
          <given value="FD" />
          <given value="Middle" />
          <suffix value="Jr." />
        </name>
        <qualification>
          <identifier>
            <value value="9876543210" />
          </identifier>
        </qualification>
      </Practitioner>
    </resource>
  </entry>
  <entry>
    <fullUrl value="urn:uuid:7e1fe702-b7be-437a-820d-72d85e140704" />
    <resource>
      <Procedure>
        <id value="urn:uuid:7e1fe702-b7be-437a-820d-72d85e140704" />
        <meta>
          <profile value="http://hl7.org/fhir/us/vrdr/StructureDefinition/VRDR-Death-Certification" />
        </meta>
        <status value="completed" />
        <category>
          <coding>
            <system value="http://snomed.info/sct" />
            <code value="103693007" />
            <display value="Diagnostic procedure" />
          </coding>
        </category>
        <code>
          <coding>
            <system value="http://snomed.info/sct" />
            <code value="308646001" />
            <display value="Death certification" />
          </coding>
        </code>
        <performedDateTime value="2019-01-29T16:48:06.4988220-05:00" />
        <performer>
          <role>
            <coding>
              <system value="http://snomed.info/sct" />
              <code value="309343006" />
              <display value="Physician" />
            </coding>
          </role>
          <actor>
            <reference value="urn:uuid:771b012e-4a95-4a28-938d-ae3a3de09a6e" />
          </actor>
        </performer>
      </Procedure>
    </resource>
  </entry>
  <entry>
    <fullUrl value="urn:uuid:553386f0-67c3-4c57-9cc0-75563d375aa3" />
    <resource>
      <Organization>
        <id value="urn:uuid:553386f0-67c3-4c57-9cc0-75563d375aa3" />
        <meta>
          <profile value="http://hl7.org/fhir/us/vrdr/StructureDefinition/VRDR-Interested-Party" />
        </meta>
        <identifier>
          <value value="1010101" />
        </identifier>
        <active value="true" />
        <type>
          <coding>
            <system value="http://terminology.hl7.org/CodeSystem/organization-type" />
            <code value="prov" />
            <display value="Healthcare Provider" />
          </coding>
        </type>
        <name value="Example Hospital" />
        <address>
          <line value="10 Example Street" />
          <line value="Line 2" />
          <city value="Bedford" />
          <district value="Middlesex" />
          <state value="Massachusetts" />
          <postalCode value="01730" />
          <country value="United States" />
        </address>
      </Organization>
    </resource>
  </entry>
  <entry>
    <fullUrl value="urn:uuid:8102186d-7f6e-47bd-a5db-a9e9ef6d68f3" />
    <resource>
      <Organization>
        <id value="urn:uuid:8102186d-7f6e-47bd-a5db-a9e9ef6d68f3" />
        <meta>
          <profile value="http://hl7.org/fhir/us/vrdr/StructureDefinition/VRDR-Funeral-Home" />
        </meta>
        <type>
          <coding>
            <code value="bus" />
            <display value="Non-Healthcare Business or Corporation" />
          </coding>
        </type>
        <name value="Smith Funeral Home" />
        <address>
          <line value="1011010 Example Street" />
          <line value="Line 2" />
          <city value="Bedford" />
          <district value="Middlesex" />
          <state value="Massachusetts" />
          <postalCode value="01730" />
          <country value="United States" />
        </address>
      </Organization>
    </resource>
  </entry>
  <entry>
    <fullUrl value="urn:uuid:1026a26f-bee0-4600-bcde-8cfa8808825b" />
    <resource>
      <PractitionerRole>
        <id value="urn:uuid:1026a26f-bee0-4600-bcde-8cfa8808825b" />
        <meta>
          <profile value="http://hl7.org/fhir/us/vrdr/StructureDefinition/VRDR-Funeral-Home-Director" />
        </meta>
        <practitioner>
          <reference value="urn:uuid:6dd650ee-d271-4998-98fe-da868b11db4f" />
        </practitioner>
        <organization>
          <reference value="urn:uuid:8102186d-7f6e-47bd-a5db-a9e9ef6d68f3" />
        </organization>
      </PractitionerRole>
    </resource>
  </entry>
  <entry>
    <fullUrl value="urn:uuid:364d3572-ad57-48f8-8527-385c4d47f316" />
    <resource>
      <List>
        <id value="urn:uuid:364d3572-ad57-48f8-8527-385c4d47f316" />
        <meta>
          <profile value="http://hl7.org/fhir/us/vrdr/StructureDefinition/VRDR-Cause-of-Death-Pathway" />
        </meta>
        <status value="current" />
        <mode value="snapshot" />
        <source>
          <reference value="urn:uuid:771b012e-4a95-4a28-938d-ae3a3de09a6e" />
        </source>
        <orderedBy>
          <coding>
            <code value="priority" />
          </coding>
        </orderedBy>
        <entry>
          <item>
            <reference value="urn:uuid:ced4c853-5672-4eb8-bd4d-14af61accd63" />
          </item>
        </entry>
        <entry>
          <item>
            <reference value="urn:uuid:ca697fd4-8da4-4bae-b3ff-353813ff801b" />
          </item>
        </entry>
        <entry>
          <item>
            <reference value="urn:uuid:43a0fdb0-4560-4b13-86c5-0461339d5db8" />
          </item>
        </entry>
        <entry>
          <item>
            <reference value="urn:uuid:62a7b26d-5ce9-4515-a3a5-c5f5923c5ecb" />
          </item>
        </entry>
      </List>
    </resource>
  </entry>
  <entry>
    <fullUrl value="urn:uuid:acb05b44-b183-4822-b96e-4934d22a2a74" />
    <resource>
      <Location>
        <id value="urn:uuid:acb05b44-b183-4822-b96e-4934d22a2a74" />
        <meta>
          <profile value="http://hl7.org/fhir/us/vrdr/StructureDefinition/VRDR-Disposition-Location" />
        </meta>
        <name value="Bedford Cemetery" />
        <address>
          <line value="603 Example Street" />
          <line value="Line 2" />
          <city value="Bedford" />
          <district value="Middlesex" />
          <state value="Massachusetts" />
          <postalCode value="01730" />
          <country value="United States" />
        </address>
      </Location>
    </resource>
  </entry>
  <entry>
    <fullUrl value="urn:uuid:54ebd2d8-5c2d-4f6c-bd13-cee315361136" />
    <resource>
      <Observation>
        <id value="urn:uuid:54ebd2d8-5c2d-4f6c-bd13-cee315361136" />
        <meta>
          <profile value="http://hl7.org/fhir/us/vrdr/StructureDefinition/VRDR-Manner-of-Death" />
        </meta>
        <status value="final" />
        <code>
          <coding>
            <system value="http://loinc.org" />
            <code value="69449-7" />
            <display value="Manner of death" />
          </coding>
        </code>
        <subject>
          <reference value="urn:uuid:e6e50850-3fc1-4970-8308-6bc868ffd805" />
        </subject>
        <performer>
          <reference value="urn:uuid:771b012e-4a95-4a28-938d-ae3a3de09a6e" />
        </performer>
        <valueCodeableConcept>
          <coding>
            <code value="7878000" />
            <display value="Accident" />
          </coding>
        </valueCodeableConcept>
      </Observation>
    </resource>
  </entry>
  <entry>
    <fullUrl value="urn:uuid:0b3d7849-44f5-4a01-ae02-1e78c0553c9f" />
    <resource>
      <Condition>
        <id value="urn:uuid:0b3d7849-44f5-4a01-ae02-1e78c0553c9f" />
        <meta>
          <profile value="http://hl7.org/fhir/us/vrdr/StructureDefinition/VRDR-Condition-Contributing-To-Death" />
        </meta>
        <code>
          <text value="Example Contributing Conditions" />
        </code>
        <subject>
          <reference value="urn:uuid:e6e50850-3fc1-4970-8308-6bc868ffd805" />
        </subject>
      </Condition>
    </resource>
  </entry>
  <entry>
    <fullUrl value="urn:uuid:ced4c853-5672-4eb8-bd4d-14af61accd63" />
    <resource>
      <Condition>
        <id value="urn:uuid:ced4c853-5672-4eb8-bd4d-14af61accd63" />
        <meta>
          <profile value="http://hl7.org/fhir/us/vrdr/StructureDefinition/VRDR-Cause-Of-Death-Condition" />
        </meta>
        <code>
          <coding>
            <system value="http://hl7.org/fhir/sid/icd-10" />
            <code value="I21.0" />
            <display value="Acute transmural myocardial infarction of anterior wall" />
          </coding>
          <text value="Rupture of myocardium" />
        </code>
        <subject>
          <reference value="urn:uuid:e6e50850-3fc1-4970-8308-6bc868ffd805" />
        </subject>
        <onsetString value="minutes" />
        <asserter>
          <reference value="urn:uuid:771b012e-4a95-4a28-938d-ae3a3de09a6e" />
        </asserter>
      </Condition>
    </resource>
  </entry>
  <entry>
    <fullUrl value="urn:uuid:ca697fd4-8da4-4bae-b3ff-353813ff801b" />
    <resource>
      <Condition>
        <id value="urn:uuid:ca697fd4-8da4-4bae-b3ff-353813ff801b" />
        <meta>
          <profile value="http://hl7.org/fhir/us/vrdr/StructureDefinition/VRDR-Cause-Of-Death-Condition" />
        </meta>
        <code>
          <coding>
            <system value="http://hl7.org/fhir/sid/icd-10" />
            <code value="I21.9" />
            <display value="Acute myocardial infarction, unspecified" />
          </coding>
          <text value="Acute myocardial infarction" />
        </code>
        <subject>
          <reference value="urn:uuid:e6e50850-3fc1-4970-8308-6bc868ffd805" />
        </subject>
        <onsetString value="6 days" />
        <asserter>
          <reference value="urn:uuid:771b012e-4a95-4a28-938d-ae3a3de09a6e" />
        </asserter>
      </Condition>
    </resource>
  </entry>
  <entry>
    <fullUrl value="urn:uuid:43a0fdb0-4560-4b13-86c5-0461339d5db8" />
    <resource>
      <Condition>
        <id value="urn:uuid:43a0fdb0-4560-4b13-86c5-0461339d5db8" />
        <meta>
          <profile value="http://hl7.org/fhir/us/vrdr/StructureDefinition/VRDR-Cause-Of-Death-Condition" />
        </meta>
        <code>
          <text value="Coronary artery thrombosis" />
        </code>
        <subject>
          <reference value="urn:uuid:e6e50850-3fc1-4970-8308-6bc868ffd805" />
        </subject>
        <onsetString value="5 years" />
        <asserter>
          <reference value="urn:uuid:771b012e-4a95-4a28-938d-ae3a3de09a6e" />
        </asserter>
      </Condition>
    </resource>
  </entry>
  <entry>
    <fullUrl value="urn:uuid:62a7b26d-5ce9-4515-a3a5-c5f5923c5ecb" />
    <resource>
      <Condition>
        <id value="urn:uuid:62a7b26d-5ce9-4515-a3a5-c5f5923c5ecb" />
        <meta>
          <profile value="http://hl7.org/fhir/us/vrdr/StructureDefinition/VRDR-Cause-Of-Death-Condition" />
        </meta>
        <code>
          <text value="Atherosclerotic coronary artery disease" />
        </code>
        <subject>
          <reference value="urn:uuid:e6e50850-3fc1-4970-8308-6bc868ffd805" />
        </subject>
        <onsetString value="7 years" />
        <asserter>
          <reference value="urn:uuid:771b012e-4a95-4a28-938d-ae3a3de09a6e" />
        </asserter>
      </Condition>
    </resource>
  </entry>
  <entry>
    <fullUrl value="urn:uuid:8f322527-4bc9-4ad4-be26-94b78815f9b8" />
    <resource>
      <RelatedPerson>
        <id value="urn:uuid:8f322527-4bc9-4ad4-be26-94b78815f9b8" />
        <meta>
          <profile value="http://hl7.org/fhir/us/vrdr/StructureDefinition/VRDR-Decedent-Father" />
        </meta>
        <patient>
          <reference value="urn:uuid:e6e50850-3fc1-4970-8308-6bc868ffd805" />
        </patient>
        <relationship>
          <coding>
            <code value="FTH" />
          </coding>
        </relationship>
        <name>
          <family value="Last" />
          <given value="Father" />
          <given value="Middle" />
          <suffix value="Sr." />
        </name>
      </RelatedPerson>
    </resource>
  </entry>
  <entry>
    <fullUrl value="urn:uuid:fc3c59ca-4dcf-4bb7-b6f1-4cc40ee992fe" />
    <resource>
      <RelatedPerson>
        <id value="urn:uuid:fc3c59ca-4dcf-4bb7-b6f1-4cc40ee992fe" />
        <meta>
          <profile value="http://hl7.org/fhir/us/vrdr/StructureDefinition/VRDR-Decedent-Mother" />
        </meta>
        <patient>
          <reference value="urn:uuid:e6e50850-3fc1-4970-8308-6bc868ffd805" />
        </patient>
        <relationship>
          <coding>
            <code value="MTH" />
          </coding>
        </relationship>
        <name>
          <family value="Maiden" />
          <given value="Mother" />
          <given value="Middle" />
          <suffix value="Dr." />
        </name>
      </RelatedPerson>
    </resource>
  </entry>
  <entry>
    <fullUrl value="urn:uuid:9bbbf0f4-4394-4e92-b0eb-07ffa5e6fd4d" />
    <resource>
      <RelatedPerson>
        <id value="urn:uuid:9bbbf0f4-4394-4e92-b0eb-07ffa5e6fd4d" />
        <meta>
          <profile value="http://hl7.org/fhir/us/vrdr/StructureDefinition/VRDR-Decedent-Spouse" />
        </meta>
        <patient>
          <reference value="urn:uuid:e6e50850-3fc1-4970-8308-6bc868ffd805" />
        </patient>
        <relationship>
          <coding>
            <code value="SPS" />
          </coding>
        </relationship>
        <name>
          <family value="Last" />
          <given value="Spouse" />
          <given value="Middle" />
          <suffix value="Ph.D." />
        </name>
      </RelatedPerson>
    </resource>
  </entry>
  <entry>
    <fullUrl value="urn:uuid:1da59696-119e-4f62-a866-31af48aebede" />
    <resource>
      <Observation>
        <id value="urn:uuid:1da59696-119e-4f62-a866-31af48aebede" />
        <meta>
          <profile value="http://hl7.org/fhir/us/vrdr/StructureDefinition/VRDR-Decedent-Education-Level" />
        </meta>
        <status value="final" />
        <code>
          <coding>
            <system value="http://loinc.org" />
            <code value="80913-7" />
            <display value="Highest level of education" />
          </coding>
        </code>
        <subject>
          <reference value="urn:uuid:e6e50850-3fc1-4970-8308-6bc868ffd805" />
        </subject>
        <valueCodeableConcept>
          <coding>
            <system value="http://hl7.org/fhir/v3/EducationLevel" />
            <code value="BD" />
            <display value="College or baccalaureate degree complete" />
          </coding>
        </valueCodeableConcept>
      </Observation>
    </resource>
  </entry>
  <entry>
    <fullUrl value="urn:uuid:e4fbfac1-4c43-4b8c-a657-2cc21ca9a1dd" />
    <resource>
      <Observation>
        <id value="urn:uuid:e4fbfac1-4c43-4b8c-a657-2cc21ca9a1dd" />
        <meta>
          <profile value="http://hl7.org/fhir/us/vrdr/StructureDefinition/VRDR-Birth-Record-Identifier" />
        </meta>
        <status value="final" />
        <code>
          <coding>
            <code value="BR" />
          </coding>
        </code>
        <subject>
          <reference value="urn:uuid:e6e50850-3fc1-4970-8308-6bc868ffd805" />
        </subject>
        <valueString value="4242123" />
      </Observation>
    </resource>
  </entry>
  <entry>
    <fullUrl value="urn:uuid:e0984cd4-3823-4aab-9365-c191405566fe" />
    <resource>
      <Observation>
        <id value="urn:uuid:e0984cd4-3823-4aab-9365-c191405566fe" />
        <meta>
          <profile value="http://hl7.org/fhir/us/vrdr/StructureDefinition/VRDR-Decedent-Employment-History" />
        </meta>
        <status value="final" />
        <code>
          <coding>
            <system value="http://loinc.org" />
            <code value="74165-2" />
            <display value="History of employment status" />
          </coding>
        </code>
        <subject>
          <reference value="urn:uuid:e6e50850-3fc1-4970-8308-6bc868ffd805" />
        </subject>
        <component>
          <code>
            <coding>
              <system value="http://loinc.org" />
              <code value="21847-9" />
              <display value="Usual occupation" />
            </coding>
          </code>
          <valueCodeableConcept>
            <coding>
              <system value="http://hl7.org/fhir/ValueSet/occupation-cdc-census-2010" />
              <code value="1340" />
              <display value="Biomedical engineers" />
            </coding>
          </valueCodeableConcept>
        </component>
        <component>
          <code>
            <coding>
              <system value="http://loinc.org" />
              <code value="21844-6" />
              <display value="Usual industry" />
            </coding>
          </code>
          <valueCodeableConcept>
            <coding>
              <system value="http://hl7.org/fhir/ValueSet/industry-cdc-census-2010" />
              <code value="7280" />
              <display value="Accounting, tax preparation, bookkeeping, and payroll services" />
            </coding>
          </valueCodeableConcept>
        </component>
        <component>
          <code>
            <coding>
              <system value="http://loinc.org" />
              <code value="55280-2" />
              <display value="Military service" />
            </coding>
          </code>
          <valueCodeableConcept>
            <coding>
              <system value="http://hl7.org/fhir/ValueSet/v2-0532" />
              <code value="Y" />
              <display value="Yes" />
            </coding>
          </valueCodeableConcept>
        </component>
      </Observation>
    </resource>
  </entry>
  <entry>
    <fullUrl value="urn:uuid:98b53157-3805-4c89-908d-1efa28f4f95e" />
    <resource>
      <Observation>
        <id value="urn:uuid:98b53157-3805-4c89-908d-1efa28f4f95e" />
        <meta>
          <profile value="http://hl7.org/fhir/us/vrdr/StructureDefinition/VRDR-Decedent-Disposition-Method" />
        </meta>
        <extension url="http://hl7.org/fhir/us/vrdr/StructureDefinition/VRDR-Disposition-Location">
          <valueReference>
            <reference value="urn:uuid:acb05b44-b183-4822-b96e-4934d22a2a74" />
          </valueReference>
        </extension>
        <status value="final" />
        <code>
          <coding>
            <system value="http://loinc.org" />
            <code value="80905-3" />
            <display value="Body disposition method" />
          </coding>
        </code>
        <subject>
          <reference value="urn:uuid:e6e50850-3fc1-4970-8308-6bc868ffd805" />
        </subject>
        <performer>
          <reference value="urn:uuid:6dd650ee-d271-4998-98fe-da868b11db4f" />
        </performer>
        <valueCodeableConcept>
          <coding>
            <system value="http://snomed.info/sct" />
            <code value="449971000124106" />
            <display value="Burial" />
          </coding>
        </valueCodeableConcept>
      </Observation>
    </resource>
  </entry>
  <entry>
    <fullUrl value="urn:uuid:67bc756e-4459-4d7b-adbe-a4e6dc57499c" />
    <resource>
      <Observation>
        <id value="urn:uuid:67bc756e-4459-4d7b-adbe-a4e6dc57499c" />
        <meta>
          <profile value="http://hl7.org/fhir/us/vrdr/StructureDefinition/VRDR-Autopsy-Performed-Indicator" />
        </meta>
        <status value="final" />
        <code>
          <coding>
            <system value="http://loinc.org" />
            <code value="85699-7" />
            <display value="Autopsy was performed" />
          </coding>
        </code>
        <subject>
          <reference value="urn:uuid:e6e50850-3fc1-4970-8308-6bc868ffd805" />
        </subject>
        <valueCodeableConcept>
          <coding>
            <system value="http://hl7.org/fhir/ValueSet/v2-0532" />
            <code value="Y" />
            <display value="Yes" />
          </coding>
        </valueCodeableConcept>
        <component>
          <code>
            <coding>
              <system value="http://loinc.org" />
              <code value="69436-4" />
              <display value="Autopsy results available" />
            </coding>
          </code>
          <valueCodeableConcept>
            <coding>
              <system value="http://hl7.org/fhir/ValueSet/v2-0532" />
              <code value="Y" />
              <display value="Yes" />
            </coding>
          </valueCodeableConcept>
        </component>
      </Observation>
    </resource>
  </entry>
  <entry>
    <fullUrl value="urn:uuid:b0d0922e-dd96-466c-8a90-4211a54dd2ac" />
    <resource>
      <Observation>
        <id value="urn:uuid:b0d0922e-dd96-466c-8a90-4211a54dd2ac" />
        <meta>
          <profile value="http://hl7.org/fhir/us/vrdr/StructureDefinition/VRDR-Decedent-Age" />
        </meta>
        <status value="final" />
        <code>
          <coding>
            <system value="http://loinc.org" />
            <code value="30525-0" />
            <display value="Age" />
          </coding>
        </code>
        <subject>
          <reference value="urn:uuid:e6e50850-3fc1-4970-8308-6bc868ffd805" />
        </subject>
        <valueQuantity>
          <value value="100" />
          <unit value="a" />
        </valueQuantity>
      </Observation>
    </resource>
  </entry>
  <entry>
    <fullUrl value="urn:uuid:2b8f6d27-68a0-495c-ba49-559029e53c1b" />
    <resource>
      <Observation>
        <id value="urn:uuid:2b8f6d27-68a0-495c-ba49-559029e53c1b" />
        <meta>
          <profile value="http://hl7.org/fhir/us/vrdr/StructureDefinition/VRDR-Decedent-Pregnancy" />
        </meta>
        <status value="final" />
        <code>
          <coding>
            <system value="http://loinc.org" />
            <code value="69442-2" />
            <display value="Timing of recent pregnancy in relation to death" />
          </coding>
        </code>
        <subject>
          <reference value="urn:uuid:e6e50850-3fc1-4970-8308-6bc868ffd805" />
        </subject>
        <valueCodeableConcept>
          <coding>
            <system value="http://hl7.org/fhir/stu3/valueset-PregnancyStatusVS" />
            <code value="PHC1260" />
            <display value="Not pregnant within past year" />
          </coding>
        </valueCodeableConcept>
      </Observation>
    </resource>
  </entry>
  <entry>
    <fullUrl value="urn:uuid:cb009c79-97b7-432e-b0e2-42f50fc7926c" />
    <resource>
      <Observation>
        <id value="urn:uuid:cb009c79-97b7-432e-b0e2-42f50fc7926c" />
        <meta>
          <profile value="http://hl7.org/fhir/us/vrdr/StructureDefinition/VRDR-Decedent-Transportation-Role" />
        </meta>
        <status value="final" />
        <code>
          <coding>
            <system value="http://loinc.org" />
            <code value="69451-3" />
            <display value="Transportation role of decedent" />
          </coding>
        </code>
        <subject>
          <reference value="urn:uuid:e6e50850-3fc1-4970-8308-6bc868ffd805" />
        </subject>
        <valueCodeableConcept>
          <coding>
            <system value="http://hl7.org/fhir/stu3/valueset-TransportationRelationships" />
            <code value="example-code" />
            <display value="Example Code" />
          </coding>
        </valueCodeableConcept>
      </Observation>
    </resource>
  </entry>
  <entry>
    <fullUrl value="urn:uuid:c1cdc151-855e-46c8-93ec-b9a052a8e305" />
    <resource>
      <Observation>
        <id value="urn:uuid:c1cdc151-855e-46c8-93ec-b9a052a8e305" />
        <meta>
          <profile value="http://hl7.org/fhir/us/vrdr/StructureDefinition/VRDR-Examiner-Contacted" />
        </meta>
        <status value="final" />
        <code>
          <coding>
            <system value="http://loinc.org" />
            <code value="74497-9" />
            <display value="Medical examiner or coroner was contacted" />
          </coding>
        </code>
        <subject>
          <reference value="urn:uuid:e6e50850-3fc1-4970-8308-6bc868ffd805" />
        </subject>
        <valueBoolean value="false" />
      </Observation>
    </resource>
  </entry>
  <entry>
    <fullUrl value="urn:uuid:0b515c90-46e9-48cc-a206-dab7ab708af1" />
    <resource>
      <Observation>
        <id value="urn:uuid:0b515c90-46e9-48cc-a206-dab7ab708af1" />
        <meta>
          <profile value="http://hl7.org/fhir/us/vrdr/StructureDefinition/VRDR-Tobacco-Use-Contributed-To-Death" />
        </meta>
        <status value="final" />
        <code>
          <coding>
            <system value="http://loinc.org" />
            <code value="69443-0" />
            <display value="Did tobacco use contribute to death" />
          </coding>
        </code>
        <subject>
          <reference value="urn:uuid:e6e50850-3fc1-4970-8308-6bc868ffd805" />
        </subject>
        <valueCodeableConcept>
          <coding>
            <system value="http://hl7.org/fhir/ValueSet/v2-0532" />
            <code value="Y" />
            <display value="Yes" />
          </coding>
        </valueCodeableConcept>
      </Observation>
    </resource>
  </entry>
  <entry>
    <fullUrl value="urn:uuid:80b03015-40bf-4e0d-a1db-ac54a53cabc1" />
    <resource>
      <Location>
        <id value="urn:uuid:80b03015-40bf-4e0d-a1db-ac54a53cabc1" />
        <meta>
          <profile value="http://hl7.org/fhir/us/vrdr/StructureDefinition/VRDR-Injury-Location" />
        </meta>
        <name value="Example Injury Location Name" />
        <description value="Example Injury Location Description" />
        <address>
          <line value="781 Example Street" />
          <line value="Line 2" />
          <city value="Bedford" />
          <district value="Middlesex" />
          <state value="Massachusetts" />
          <postalCode value="01730" />
          <country value="United States" />
        </address>
      </Location>
    </resource>
  </entry>
  <entry>
    <fullUrl value="urn:uuid:c4db1eed-fbfe-46d5-a3f9-7b0c7d935ee9" />
    <resource>
      <Observation>
        <id value="urn:uuid:c4db1eed-fbfe-46d5-a3f9-7b0c7d935ee9" />
        <meta>
          <profile value="http://hl7.org/fhir/us/vrdr/StructureDefinition/VRDR-Injury-Incident" />
        </meta>
        <status value="final" />
        <code>
          <coding>
            <system value="http://loinc.org" />
            <code value="11374-6" />
            <display value="Injury incident description" />
          </coding>
        </code>
        <subject>
          <reference value="urn:uuid:e6e50850-3fc1-4970-8308-6bc868ffd805" />
        </subject>
        <effectiveDateTime value="2018-02-19T16:48:06.4988220-05:00" />
      </Observation>
    </resource>
  </entry>
  <entry>
    <fullUrl value="urn:uuid:59cc2fb5-5783-45cd-b375-729a12c38d3f" />
    <resource>
      <Location>
        <id value="urn:uuid:59cc2fb5-5783-45cd-b375-729a12c38d3f" />
        <meta>
          <profile value="http://hl7.org/fhir/us/vrdr/StructureDefinition/VRDR-Death-Location" />
        </meta>
        <name value="Example Death Location Name" />
        <description value="Example Death Location Description" />
        <address>
          <line value="671 Example Street" />
          <line value="Line 2" />
          <city value="Bedford" />
          <district value="Middlesex" />
          <state value="Massachusetts" />
          <postalCode value="01730" />
          <country value="United States" />
        </address>
      </Location>
    </resource>
  </entry>
  <entry>
    <fullUrl value="urn:uuid:c6bb8c8d-252a-4575-b27a-8e088d5394d5" />
    <resource>
      <Observation>
        <id value="urn:uuid:c6bb8c8d-252a-4575-b27a-8e088d5394d5" />
        <meta>
          <profile value="http://hl7.org/fhir/us/vrdr/StructureDefinition/VRDR-Death-Date" />
        </meta>
        <status value="final" />
        <code>
          <coding>
            <system value="http://loinc.org" />
            <code value="81956-5" />
            <display value="Date and time of death" />
          </coding>
        </code>
        <subject>
          <reference value="urn:uuid:e6e50850-3fc1-4970-8308-6bc868ffd805" />
        </subject>
        <effectiveDateTime value="2018-02-19T16:48:06.4988220-05:00" />
        <performer>
          <reference value="urn:uuid:771b012e-4a95-4a28-938d-ae3a3de09a6e" />
        </performer>
        <component>
          <code>
            <coding>
              <system value="http://loinc.org" />
              <code value="80616-6" />
              <display value="Date and time pronounced dead" />
            </coding>
          </code>
          <valueDateTime value="2018-02-20T16:48:06.4988220-05:00" />
        </component>
      </Observation>
    </resource>
  </entry>
</Bundle>


