<Bundle xmlns="http://hl7.org/fhir">
  <id value="urn:uuid:3bb5a16e-2b9b-434a-878d-85b4359497e0" />
  <meta>
    <profile value="http://www.hl7.org/fhir/us/vrdr/StructureDefinition/VRDR-Death-Certificate-Document" />
  </meta>
  <identifier>
    <value value="22089b3e-c6e5-41e5-95ca-d56fcb94149b" />
  </identifier>
  <type value="document" />
  <entry>
    <fullUrl value="urn:uuid:c8c54ba2-7c16-4fc3-9fc2-81f86ad4b3fb" />
    <resource>
      <Composition>
        <id value="urn:uuid:c8c54ba2-7c16-4fc3-9fc2-81f86ad4b3fb" />
        <meta>
          <profile value="http://www.hl7.org/fhir/us/vrdr/StructureDefinition/VRDR-Death-Certificate" />
        </meta>
        <identifier>
          <value value="78ec4209-c593-4fe7-858b-26740b0bb56e" />
        </identifier>
        <status value="final" />
        <type>
          <coding>
            <system value="http://loinc.org" />
            <code value="64297-5" />
            <display value="Death certificate" />
          </coding>
        </type>
        <subject>
          <reference value="urn:uuid:f2d55847-8311-4d33-8011-83f590d8efb5" />
        </subject>
        <date value="2019-01-20T16:47:04.4988220-05:00" />
        <attester>
          <mode value="legal" />
          <time value="2019-01-29T16:48:06.4988220-05:00" />
          <party>
            <reference value="urn:uuid:cf6400ec-82ff-4b0c-80bc-d5d65ae42b61" />
          </party>
        </attester>
        <event>
          <code>
            <coding>
              <system value="http://snomed.info/sct" />
              <code value="103693007" />
              <display value="Diagnostic procedure" />
            </coding>
          </code>
          <detail>
            <reference value="urn:uuid:7174c9c6-3354-4964-a022-47081eec5549" />
          </detail>
        </event>
        <section>
          <entry>
            <reference value="urn:uuid:f2d55847-8311-4d33-8011-83f590d8efb5" />
          </entry>
          <entry>
            <reference value="urn:uuid:cf6400ec-82ff-4b0c-80bc-d5d65ae42b61" />
          </entry>
          <entry>
            <reference value="urn:uuid:0f10cf6c-c698-4d45-b6e6-2ae2a2fd2a79" />
          </entry>
          <entry>
            <reference value="urn:uuid:7174c9c6-3354-4964-a022-47081eec5549" />
          </entry>
          <entry>
            <reference value="urn:uuid:8770d475-1649-42fc-87ec-a306b191256c" />
          </entry>
          <entry>
            <reference value="urn:uuid:5ad6ef0b-dedb-47d4-a84c-8299533b192e" />
          </entry>
          <entry>
            <reference value="urn:uuid:6949b7f0-7e41-4c3f-8577-23c4623d3cde" />
          </entry>
          <entry>
            <reference value="urn:uuid:dad0fc41-d82c-4b34-b4e2-b68a97e38264" />
          </entry>
          <entry>
            <reference value="urn:uuid:ba2d026b-eaf3-4c13-ac80-7f9bf619a6cf" />
          </entry>
          <entry>
            <reference value="urn:uuid:c06d6f6b-b7e5-4156-b885-fc13d3fa47c4" />
          </entry>
          <entry>
            <reference value="urn:uuid:fdf1b0ba-693e-4ed0-b59e-7f3036a16995" />
          </entry>
          <entry>
            <reference value="urn:uuid:aa23fbf3-6ed6-41e8-bbec-8a58391d1c2d" />
          </entry>
          <entry>
            <reference value="urn:uuid:bdfd0f94-08af-49b2-beae-d21d55c7df6c" />
          </entry>
          <entry>
            <reference value="urn:uuid:ddf3f099-518e-4473-99da-5d3a6fcf3672" />
          </entry>
          <entry>
            <reference value="urn:uuid:ca633bde-58e3-496e-a438-11a9a313d022" />
          </entry>
          <entry>
            <reference value="urn:uuid:73da6230-9cd5-43e9-8a8b-8c8e315ed196" />
          </entry>
          <entry>
            <reference value="urn:uuid:b9735b1a-aedf-41e3-8161-3cb6b91ee78f" />
          </entry>
          <entry>
            <reference value="urn:uuid:019c8516-149b-48c7-84e8-42541da66920" />
          </entry>
          <entry>
            <reference value="urn:uuid:88baa893-c344-4a22-b178-ad0cf7d8d0ba" />
          </entry>
          <entry>
            <reference value="urn:uuid:d7626d4e-0453-4a66-88de-4ac954e85b35" />
          </entry>
          <entry>
            <reference value="urn:uuid:41ba117b-898e-418d-988f-dd191c6f1545" />
          </entry>
          <entry>
            <reference value="urn:uuid:103fee9a-cbe6-4285-b10c-fe168c4872d1" />
          </entry>
          <entry>
            <reference value="urn:uuid:8179c0b6-baa0-4c13-8ba1-05241d2fa393" />
          </entry>
          <entry>
            <reference value="urn:uuid:158df500-96bb-463a-a2e0-a5afeddb1e5d" />
          </entry>
          <entry>
            <reference value="urn:uuid:45d892b9-0520-440a-ac1b-d33dbc53085d" />
          </entry>
          <entry>
            <reference value="urn:uuid:3f98bfef-9924-411f-b98a-34b940bbb0a2" />
          </entry>
          <entry>
            <reference value="urn:uuid:ff817aac-9ba9-43f8-91c8-7fe9dba44c64" />
          </entry>
          <entry>
            <reference value="urn:uuid:162e7632-a1d7-445d-b6ce-01a8d0a11fc1" />
          </entry>
          <entry>
            <reference value="urn:uuid:f036d981-d247-426a-8b17-d8151d567fbd" />
          </entry>
          <entry>
            <reference value="urn:uuid:f6fbbca2-7596-43a7-974c-a97da9ba7a09" />
          </entry>
          <entry>
            <reference value="urn:uuid:94e66e48-6624-4099-87d8-5af8c9d50eef" />
          </entry>
        </section>
      </Composition>
    </resource>
  </entry>
  <entry>
    <fullUrl value="urn:uuid:f2d55847-8311-4d33-8011-83f590d8efb5" />
    <resource>
      <Patient>
        <id value="urn:uuid:f2d55847-8311-4d33-8011-83f590d8efb5" />
        <meta>
          <profile value="http://www.hl7.org/fhir/us/vrdr/StructureDefinition/VRDR-Decedent" />
        </meta>
        <extension url="http://hl7.org/fhir/us/core/StructureDefinition/us-core-birthsex">
          <valueCodeableConcept>
            <coding>
              <system value="http://hl7.org/fhir/us/core/ValueSet/us-core-birthsex" />
              <code value="M" />
              <display value="Male" />
            </coding>
          </valueCodeableConcept>
        </extension>
        <extension url="http://hl7.org/fhir/us/core/StructureDefinition/us-core-ethnicity">
          <extension url="text">
            <valueString value="Hispanic or Latino" />
          </extension>
          <extension url="ombCategory">
            <valueCoding>
              <system value="urn:oid:2.16.840.1.113883.6.238" />
              <code value="2135-2" />
              <display value="Hispanic or Latino" />
            </valueCoding>
          </extension>
          <extension url="text">
            <valueString value="Puerto Rican" />
          </extension>
          <extension url="detailed">
            <valueCoding>
              <system value="urn:oid:2.16.840.1.113883.6.238" />
              <code value="2180-8" />
              <display value="Puerto Rican" />
            </valueCoding>
          </extension>
        </extension>
        <extension url="http://hl7.org/fhir/us/core/StructureDefinition/us-core-race">
          <extension url="text">
            <valueString value="White" />
          </extension>
          <extension url="ombCategory">
            <valueCoding>
              <system value="urn:oid:2.16.840.1.113883.6.238" />
              <code value="2106-3" />
              <display value="White" />
            </valueCoding>
          </extension>
          <extension url="text">
            <valueString value="Native Hawaiian or Other Pacific Islander" />
          </extension>
          <extension url="ombCategory">
            <valueCoding>
              <system value="urn:oid:2.16.840.1.113883.6.238" />
              <code value="2076-8" />
              <display value="Native Hawaiian or Other Pacific Islander" />
            </valueCoding>
          </extension>
        </extension>
        <extension url="http://www.hl7.org/fhir/StructureDefinition/birthPlace">
          <valueAddress>
            <line value="1011 Example Street" />
            <line value="Line 2" />
            <city value="Bedford" />
            <district value="Middlesex" />
            <state value="Massachusetts" />
            <postalCode value="01730" />
            <country value="United States" />
          </valueAddress>
        </extension>
        <identifier>
          <type>
            <coding>
              <code value="BR" />
              <display value="Social Beneficiary Identifier" />
            </coding>
          </type>
          <system value="http://hl7.org/fhir/sid/us-ssn" />
          <value value="123456789" />
        </identifier>
        <name>
          <use value="official" />
          <family value="Last" />
          <given value="Example" />
          <given value="Something" />
          <given value="Middle" />
          <suffix value="Jr." />
        </name>
        <gender value="male" />
        <birthDate value="1940-02-19T16:48:06.4988220-05:00" />
        <address>
          <line value="101 Example Street" />
          <line value="Line 2" />
          <city value="Bedford" />
          <district value="Middlesex" />
          <state value="Massachusetts" />
          <postalCode value="01730" />
          <country value="United States" />
        </address>
        <maritalStatus>
          <coding>
            <system value="http://hl7.org/fhir/v3/MaritalStatus" />
            <code value="S" />
            <display value="Never Married" />
          </coding>
        </maritalStatus>
      </Patient>
    </resource>
  </entry>
  <entry>
    <fullUrl value="urn:uuid:cf6400ec-82ff-4b0c-80bc-d5d65ae42b61" />
    <resource>
      <Practitioner>
        <id value="urn:uuid:cf6400ec-82ff-4b0c-80bc-d5d65ae42b61" />
        <meta>
          <profile value="http://www.hl7.org/fhir/us/vrdr/StructureDefinition/VRDR-Certifier" />
        </meta>
        <name>
          <use value="official" />
          <family value="Last" />
          <given value="Doctor" />
          <given value="Middle" />
          <suffix value="Jr." />
        </name>
        <address>
          <line value="11 Example Street" />
          <line value="Line 2" />
          <city value="Bedford" />
          <district value="Middlesex" />
          <state value="Massachusetts" />
          <postalCode value="01730" />
          <country value="United States" />
        </address>
        <qualification>
          <code>
            <coding>
              <system value="http://hl7.org/fhir/v2/0360/2.7" />
              <code value="MD" />
              <display value="Doctor of Medicine" />
            </coding>
          </code>
        </qualification>
      </Practitioner>
    </resource>
  </entry>
  <entry>
    <fullUrl value="urn:uuid:0f10cf6c-c698-4d45-b6e6-2ae2a2fd2a79" />
    <resource>
      <Practitioner>
        <id value="urn:uuid:0f10cf6c-c698-4d45-b6e6-2ae2a2fd2a79" />
        <meta>
          <profile value="http://www.hl7.org/fhir/us/vrdr/StructureDefinition/VRDR-Mortician" />
        </meta>
        <name>
          <use value="official" />
          <family value="Last" />
          <given value="FD" />
          <given value="Middle" />
          <suffix value="Jr." />
        </name>
        <qualification>
          <identifier>
            <value value="9876543210" />
          </identifier>
        </qualification>
      </Practitioner>
    </resource>
  </entry>
  <entry>
    <fullUrl value="urn:uuid:7174c9c6-3354-4964-a022-47081eec5549" />
    <resource>
      <Procedure>
        <id value="urn:uuid:7174c9c6-3354-4964-a022-47081eec5549" />
        <meta>
          <profile value="http://www.hl7.org/fhir/us/vrdr/StructureDefinition/VRDR-Death-Certification" />
        </meta>
        <status value="completed" />
        <category>
          <coding>
            <system value="http://snomed.info/sct" />
            <code value="103693007" />
            <display value="Diagnostic procedure" />
          </coding>
        </category>
        <code>
          <coding>
            <system value="http://snomed.info/sct" />
            <code value="308646001" />
            <display value="Death certification" />
          </coding>
        </code>
        <performedString value="2019-01-29T16:48:06.4988220-05:00" />
        <performer>
          <role>
            <coding>
              <system value="http://snomed.info/sct" />
              <code value="309343006" />
              <display value="Physician" />
            </coding>
          </role>
          <actor>
            <reference value="urn:uuid:cf6400ec-82ff-4b0c-80bc-d5d65ae42b61" />
          </actor>
        </performer>
      </Procedure>
    </resource>
  </entry>
  <entry>
    <fullUrl value="urn:uuid:8770d475-1649-42fc-87ec-a306b191256c" />
    <resource>
      <Organization>
        <id value="urn:uuid:8770d475-1649-42fc-87ec-a306b191256c" />
        <meta>
          <profile value="http://www.hl7.org/fhir/us/vrdr/StructureDefinition/VRDR-Interested-Party" />
        </meta>
        <identifier>
          <value value="0ee7d156-051f-4f58-ba22-7060333c599b" />
        </identifier>
        <active value="true" />
        <type>
          <coding>
            <system value="http://terminology.hl7.org/CodeSystem/organization-type" />
            <code value="prov" />
            <display value="Healthcare Provider" />
          </coding>
        </type>
        <name value="Example Hospital" />
        <address>
          <line value="10 Example Street" />
          <line value="Line 2" />
          <city value="Bedford" />
          <district value="Middlesex" />
          <state value="Massachusetts" />
          <postalCode value="01730" />
          <country value="United States" />
        </address>
      </Organization>
    </resource>
  </entry>
  <entry>
    <fullUrl value="urn:uuid:5ad6ef0b-dedb-47d4-a84c-8299533b192e" />
    <resource>
      <Organization>
        <id value="urn:uuid:5ad6ef0b-dedb-47d4-a84c-8299533b192e" />
        <meta>
          <profile value="http://www.hl7.org/fhir/us/vrdr/StructureDefinition/VRDR-Funeral-Home" />
        </meta>
        <type>
          <coding>
            <code value="bus" />
            <display value="Non-Healthcare Business or Corporation" />
          </coding>
        </type>
        <name value="Smith Funeral Home" />
        <address>
          <line value="1011010 Example Street" />
          <line value="Line 2" />
          <city value="Bedford" />
          <district value="Middlesex" />
          <state value="Massachusetts" />
          <postalCode value="01730" />
          <country value="United States" />
        </address>
      </Organization>
    </resource>
  </entry>
  <entry>
    <fullUrl value="urn:uuid:6949b7f0-7e41-4c3f-8577-23c4623d3cde" />
    <resource>
      <PractitionerRole>
        <id value="urn:uuid:6949b7f0-7e41-4c3f-8577-23c4623d3cde" />
        <meta>
          <profile value="http://www.hl7.org/fhir/us/vrdr/StructureDefinition/VRDR-Funeral-Home-Director" />
        </meta>
        <practitioner>
          <reference value="urn:uuid:0f10cf6c-c698-4d45-b6e6-2ae2a2fd2a79" />
        </practitioner>
        <organization>
          <reference value="urn:uuid:5ad6ef0b-dedb-47d4-a84c-8299533b192e" />
        </organization>
      </PractitionerRole>
    </resource>
  </entry>
  <entry>
    <fullUrl value="urn:uuid:dad0fc41-d82c-4b34-b4e2-b68a97e38264" />
    <resource>
      <List>
        <id value="urn:uuid:dad0fc41-d82c-4b34-b4e2-b68a97e38264" />
        <meta>
          <profile value="http://www.hl7.org/fhir/us/vrdr/StructureDefinition/VRDR-Cause-of-Death-Pathway" />
        </meta>
        <status value="current" />
        <mode value="snapshot" />
        <source>
          <reference value="urn:uuid:cf6400ec-82ff-4b0c-80bc-d5d65ae42b61" />
        </source>
        <orderedBy>
          <coding>
            <code value="priority" />
          </coding>
        </orderedBy>
        <entry>
          <item>
            <reference value="urn:uuid:aa23fbf3-6ed6-41e8-bbec-8a58391d1c2d" />
          </item>
        </entry>
        <entry>
          <item>
            <reference value="urn:uuid:bdfd0f94-08af-49b2-beae-d21d55c7df6c" />
          </item>
        </entry>
        <entry>
          <item>
            <reference value="urn:uuid:ddf3f099-518e-4473-99da-5d3a6fcf3672" />
          </item>
        </entry>
        <entry>
          <item>
            <reference value="urn:uuid:ca633bde-58e3-496e-a438-11a9a313d022" />
          </item>
        </entry>
      </List>
    </resource>
  </entry>
  <entry>
    <fullUrl value="urn:uuid:ba2d026b-eaf3-4c13-ac80-7f9bf619a6cf" />
    <resource>
      <Location>
        <id value="urn:uuid:ba2d026b-eaf3-4c13-ac80-7f9bf619a6cf" />
        <meta>
          <profile value="http://www.hl7.org/fhir/us/vrdr/StructureDefinition/VRDR-Disposition-Location" />
        </meta>
        <name value="Bedford Cemetery" />
        <address>
          <line value="603 Example Street" />
          <line value="Line 2" />
          <city value="Bedford" />
          <district value="Middlesex" />
          <state value="Massachusetts" />
          <postalCode value="01730" />
          <country value="United States" />
        </address>
      </Location>
    </resource>
  </entry>
  <entry>
    <fullUrl value="urn:uuid:c06d6f6b-b7e5-4156-b885-fc13d3fa47c4" />
    <resource>
      <Observation>
        <id value="urn:uuid:c06d6f6b-b7e5-4156-b885-fc13d3fa47c4" />
        <meta>
          <profile value="http://www.hl7.org/fhir/us/vrdr/StructureDefinition/VRDR-Manner-of-Death" />
        </meta>
        <status value="final" />
        <code>
          <coding>
            <system value="http://loinc.org" />
            <code value="69449-7" />
            <display value="Manner of death" />
          </coding>
        </code>
        <subject>
          <reference value="urn:uuid:f2d55847-8311-4d33-8011-83f590d8efb5" />
        </subject>
        <performer>
          <reference value="urn:uuid:cf6400ec-82ff-4b0c-80bc-d5d65ae42b61" />
        </performer>
        <valueCodeableConcept>
          <coding>
            <code value="7878000" />
            <display value="Accident" />
          </coding>
        </valueCodeableConcept>
      </Observation>
    </resource>
  </entry>
  <entry>
    <fullUrl value="urn:uuid:fdf1b0ba-693e-4ed0-b59e-7f3036a16995" />
    <resource>
      <Condition>
        <id value="urn:uuid:fdf1b0ba-693e-4ed0-b59e-7f3036a16995" />
        <meta>
          <profile value="http://www.hl7.org/fhir/us/vrdr/StructureDefinition/VRDR-Condition-Contributing-To-Death" />
        </meta>
        <code>
          <text value="Example Contributing Conditions" />
        </code>
        <subject>
          <reference value="urn:uuid:f2d55847-8311-4d33-8011-83f590d8efb5" />
        </subject>
      </Condition>
    </resource>
  </entry>
  <entry>
    <fullUrl value="urn:uuid:aa23fbf3-6ed6-41e8-bbec-8a58391d1c2d" />
    <resource>
      <Condition>
        <id value="urn:uuid:aa23fbf3-6ed6-41e8-bbec-8a58391d1c2d" />
        <meta>
          <profile value="http://www.hl7.org/fhir/us/vrdr/StructureDefinition/VRDR-Cause-Of-Death-Condition" />
        </meta>
        <code>
          <coding>
            <system value="http://hl7.org/fhir/sid/icd-10" />
            <code value="I21.0" />
            <display value="Acute transmural myocardial infarction of anterior wall" />
          </coding>
          <text value="Rupture of myocardium" />
        </code>
        <subject>
          <reference value="urn:uuid:f2d55847-8311-4d33-8011-83f590d8efb5" />
        </subject>
        <onsetString value="minutes" />
        <asserter>
          <reference value="urn:uuid:cf6400ec-82ff-4b0c-80bc-d5d65ae42b61" />
        </asserter>
      </Condition>
    </resource>
  </entry>
  <entry>
    <fullUrl value="urn:uuid:bdfd0f94-08af-49b2-beae-d21d55c7df6c" />
    <resource>
      <Condition>
        <id value="urn:uuid:bdfd0f94-08af-49b2-beae-d21d55c7df6c" />
        <meta>
          <profile value="http://www.hl7.org/fhir/us/vrdr/StructureDefinition/VRDR-Cause-Of-Death-Condition" />
        </meta>
        <code>
          <coding>
            <system value="http://hl7.org/fhir/sid/icd-10" />
            <code value="I21.9" />
            <display value="Acute myocardial infarction, unspecified" />
          </coding>
          <text value="Acute myocardial infarction" />
        </code>
        <subject>
          <reference value="urn:uuid:f2d55847-8311-4d33-8011-83f590d8efb5" />
        </subject>
        <onsetString value="6 days" />
        <asserter>
          <reference value="urn:uuid:cf6400ec-82ff-4b0c-80bc-d5d65ae42b61" />
        </asserter>
      </Condition>
    </resource>
  </entry>
  <entry>
    <fullUrl value="urn:uuid:ddf3f099-518e-4473-99da-5d3a6fcf3672" />
    <resource>
      <Condition>
        <id value="urn:uuid:ddf3f099-518e-4473-99da-5d3a6fcf3672" />
        <meta>
          <profile value="http://www.hl7.org/fhir/us/vrdr/StructureDefinition/VRDR-Cause-Of-Death-Condition" />
        </meta>
        <code>
          <text value="Coronary artery thrombosis" />
        </code>
        <subject>
          <reference value="urn:uuid:f2d55847-8311-4d33-8011-83f590d8efb5" />
        </subject>
        <onsetString value="5 years" />
        <asserter>
          <reference value="urn:uuid:cf6400ec-82ff-4b0c-80bc-d5d65ae42b61" />
        </asserter>
      </Condition>
    </resource>
  </entry>
  <entry>
    <fullUrl value="urn:uuid:ca633bde-58e3-496e-a438-11a9a313d022" />
    <resource>
      <Condition>
        <id value="urn:uuid:ca633bde-58e3-496e-a438-11a9a313d022" />
        <meta>
          <profile value="http://www.hl7.org/fhir/us/vrdr/StructureDefinition/VRDR-Cause-Of-Death-Condition" />
        </meta>
        <code>
          <text value="Atherosclerotic coronary artery disease" />
        </code>
        <subject>
          <reference value="urn:uuid:f2d55847-8311-4d33-8011-83f590d8efb5" />
        </subject>
        <onsetString value="7 years" />
        <asserter>
          <reference value="urn:uuid:cf6400ec-82ff-4b0c-80bc-d5d65ae42b61" />
        </asserter>
      </Condition>
    </resource>
  </entry>
  <entry>
    <fullUrl value="urn:uuid:73da6230-9cd5-43e9-8a8b-8c8e315ed196" />
    <resource>
      <RelatedPerson>
        <id value="urn:uuid:73da6230-9cd5-43e9-8a8b-8c8e315ed196" />
        <meta>
          <profile value="http://www.hl7.org/fhir/us/vrdr/StructureDefinition/VRDR-Decedent-Father" />
        </meta>
        <patient>
          <reference value="urn:uuid:f2d55847-8311-4d33-8011-83f590d8efb5" />
        </patient>
        <relationship>
          <coding>
            <code value="FTH" />
          </coding>
        </relationship>
        <name>
          <family value="Last" />
          <given value="Father" />
          <given value="Middle" />
          <suffix value="Sr." />
        </name>
      </RelatedPerson>
    </resource>
  </entry>
  <entry>
    <fullUrl value="urn:uuid:b9735b1a-aedf-41e3-8161-3cb6b91ee78f" />
    <resource>
      <RelatedPerson>
        <id value="urn:uuid:b9735b1a-aedf-41e3-8161-3cb6b91ee78f" />
        <meta>
          <profile value="http://www.hl7.org/fhir/us/vrdr/StructureDefinition/VRDR-Decedent-Mother" />
        </meta>
        <patient>
          <reference value="urn:uuid:f2d55847-8311-4d33-8011-83f590d8efb5" />
        </patient>
        <relationship>
          <coding>
            <code value="MTH" />
          </coding>
        </relationship>
        <name>
          <family value="Maiden" />
          <given value="Mother" />
          <given value="Middle" />
          <suffix value="Dr." />
        </name>
      </RelatedPerson>
    </resource>
  </entry>
  <entry>
    <fullUrl value="urn:uuid:019c8516-149b-48c7-84e8-42541da66920" />
    <resource>
      <RelatedPerson>
        <id value="urn:uuid:019c8516-149b-48c7-84e8-42541da66920" />
        <meta>
          <profile value="http://www.hl7.org/fhir/us/vrdr/StructureDefinition/VRDR-Decedent-Spouse" />
        </meta>
        <patient>
          <reference value="urn:uuid:f2d55847-8311-4d33-8011-83f590d8efb5" />
        </patient>
        <relationship>
          <coding>
            <code value="SPS" />
          </coding>
        </relationship>
        <name>
          <family value="Last" />
          <given value="Spouse" />
          <given value="Middle" />
          <suffix value="Ph.D." />
        </name>
      </RelatedPerson>
    </resource>
  </entry>
  <entry>
    <fullUrl value="urn:uuid:88baa893-c344-4a22-b178-ad0cf7d8d0ba" />
    <resource>
      <Observation>
        <id value="urn:uuid:88baa893-c344-4a22-b178-ad0cf7d8d0ba" />
        <meta>
          <profile value="http://www.hl7.org/fhir/us/vrdr/StructureDefinition/VRDR-Decedent-Education-Level" />
        </meta>
        <status value="final" />
        <code>
          <coding>
            <system value="http://loinc.org" />
            <code value="80913-7" />
            <display value="Highest level of education" />
          </coding>
        </code>
        <subject>
          <reference value="urn:uuid:f2d55847-8311-4d33-8011-83f590d8efb5" />
        </subject>
        <valueCodeableConcept>
          <coding>
            <system value="http://hl7.org/fhir/v3/EducationLevel" />
            <code value="BD" />
            <display value="College or baccalaureate degree complete" />
          </coding>
        </valueCodeableConcept>
      </Observation>
    </resource>
  </entry>
  <entry>
    <fullUrl value="urn:uuid:d7626d4e-0453-4a66-88de-4ac954e85b35" />
    <resource>
      <Observation>
        <id value="urn:uuid:d7626d4e-0453-4a66-88de-4ac954e85b35" />
        <meta>
          <profile value="http://www.hl7.org/fhir/us/vrdr/StructureDefinition/VRDR-Birth-Record-Identifier" />
        </meta>
        <status value="final" />
        <code>
          <coding>
            <code value="BR" />
          </coding>
        </code>
        <subject>
          <reference value="urn:uuid:f2d55847-8311-4d33-8011-83f590d8efb5" />
        </subject>
        <valueString value="4242123" />
      </Observation>
    </resource>
  </entry>
  <entry>
    <fullUrl value="urn:uuid:41ba117b-898e-418d-988f-dd191c6f1545" />
    <resource>
      <Observation>
        <id value="urn:uuid:41ba117b-898e-418d-988f-dd191c6f1545" />
        <meta>
          <profile value="http://www.hl7.org/fhir/us/vrdr/StructureDefinition/VRDR-Decedent-Employment-History" />
        </meta>
        <status value="final" />
        <code>
          <coding>
            <system value="http://loinc.org" />
            <code value="74165-2" />
            <display value="History of employment status" />
          </coding>
        </code>
        <subject>
          <reference value="urn:uuid:f2d55847-8311-4d33-8011-83f590d8efb5" />
        </subject>
        <component>
          <code>
            <coding>
              <system value="http://loinc.org" />
              <code value="21847-9" />
              <display value="Usual occupation" />
            </coding>
          </code>
          <valueCodeableConcept>
            <coding>
              <system value="http://www.hl7.org/fhir/ValueSet/Usual-occupation" />
              <code value="7280" />
              <display value="Accounting, tax preparation, bookkeeping, and payroll services" />
            </coding>
          </valueCodeableConcept>
        </component>
        <component>
          <code>
            <coding>
              <system value="http://loinc.org" />
              <code value="21844-6" />
              <display value="Usual industry" />
            </coding>
          </code>
          <valueCodeableConcept>
            <coding>
              <system value="http://www.hl7.org/fhir/ValueSet/industry-cdc-census-2010" />
              <code value="1320" />
              <display value="Aerospace engineers" />
            </coding>
          </valueCodeableConcept>
        </component>
        <component>
          <code>
            <coding>
              <system value="http://loinc.org" />
              <code value="55280-2" />
              <display value="Military service" />
            </coding>
          </code>
          <valueCodeableConcept>
            <coding>
              <system value="http://www.hl7.org/fhir/ValueSet/v2-0532" />
              <code value="Y" />
              <display value="Yes" />
            </coding>
          </valueCodeableConcept>
        </component>
      </Observation>
    </resource>
  </entry>
  <entry>
    <fullUrl value="urn:uuid:103fee9a-cbe6-4285-b10c-fe168c4872d1" />
    <resource>
      <Observation>
        <id value="urn:uuid:103fee9a-cbe6-4285-b10c-fe168c4872d1" />
        <meta>
          <profile value="http://www.hl7.org/fhir/us/vrdr/StructureDefinition/VRDR-Decedent-Disposition-Method" />
        </meta>
        <extension url="http://www.hl7.org/fhir/us/vrdr/StructureDefinition/VRDR-Disposition-Location">
          <valueReference>
            <reference value="urn:uuid:ba2d026b-eaf3-4c13-ac80-7f9bf619a6cf" />
          </valueReference>
        </extension>
        <status value="final" />
        <code>
          <coding>
            <system value="http://loinc.org" />
            <code value="80905-3" />
            <display value="Body disposition method" />
          </coding>
        </code>
        <subject>
          <reference value="urn:uuid:f2d55847-8311-4d33-8011-83f590d8efb5" />
        </subject>
        <performer>
          <reference value="urn:uuid:0f10cf6c-c698-4d45-b6e6-2ae2a2fd2a79" />
        </performer>
        <valueCodeableConcept>
          <coding>
            <system value="http://snomed.info/sct" />
            <code value="449971000124106" />
            <display value="Burial" />
          </coding>
        </valueCodeableConcept>
      </Observation>
    </resource>
  </entry>
  <entry>
    <fullUrl value="urn:uuid:8179c0b6-baa0-4c13-8ba1-05241d2fa393" />
    <resource>
      <Observation>
        <id value="urn:uuid:8179c0b6-baa0-4c13-8ba1-05241d2fa393" />
        <meta>
          <profile value="http://www.hl7.org/fhir/us/vrdr/StructureDefinition/VRDR-Autopsy-Performed-Indicator" />
        </meta>
        <status value="final" />
        <code>
          <coding>
            <system value="http://loinc.org" />
            <code value="85699-7" />
            <display value="Autopsy was performed" />
          </coding>
        </code>
        <subject>
          <reference value="urn:uuid:f2d55847-8311-4d33-8011-83f590d8efb5" />
        </subject>
        <valueCodeableConcept>
          <coding>
            <system value="http://www.hl7.org/fhir/ValueSet/v2-0532" />
            <code value="Y" />
            <display value="Yes" />
          </coding>
        </valueCodeableConcept>
        <component>
          <code>
            <coding>
              <system value="http://loinc.org" />
              <code value="69436-4" />
              <display value="Autopsy results available" />
            </coding>
          </code>
          <valueCodeableConcept>
            <coding>
              <system value="http://www.hl7.org/fhir/ValueSet/v2-0532" />
              <code value="Y" />
              <display value="Yes" />
            </coding>
          </valueCodeableConcept>
        </component>
      </Observation>
    </resource>
  </entry>
  <entry>
    <fullUrl value="urn:uuid:158df500-96bb-463a-a2e0-a5afeddb1e5d" />
    <resource>
      <Observation>
        <id value="urn:uuid:158df500-96bb-463a-a2e0-a5afeddb1e5d" />
        <meta>
          <profile value="http://www.hl7.org/fhir/us/vrdr/StructureDefinition/VRDR-Decedent-Age" />
        </meta>
        <status value="final" />
        <code>
          <coding>
            <system value="http://loinc.org" />
            <code value="30525-0" />
            <display value="Age" />
          </coding>
        </code>
        <subject>
          <reference value="urn:uuid:f2d55847-8311-4d33-8011-83f590d8efb5" />
        </subject>
        <valueQuantity>
          <value value="100" />
          <unit value="a" />
        </valueQuantity>
      </Observation>
    </resource>
  </entry>
  <entry>
    <fullUrl value="urn:uuid:45d892b9-0520-440a-ac1b-d33dbc53085d" />
    <resource>
      <Observation>
        <id value="urn:uuid:45d892b9-0520-440a-ac1b-d33dbc53085d" />
        <meta>
          <profile value="http://www.hl7.org/fhir/us/vrdr/StructureDefinition/VRDR-Decedent-Pregnancy" />
        </meta>
        <status value="final" />
        <code>
          <coding>
            <system value="http://loinc.org" />
            <code value="69442-2" />
            <display value="Timing of recent pregnancy in relation to death" />
          </coding>
        </code>
        <subject>
          <reference value="urn:uuid:f2d55847-8311-4d33-8011-83f590d8efb5" />
        </subject>
        <valueCodeableConcept>
          <coding>
            <system value="http://www.hl7.org/fhir/stu3/valueset-PregnancyStatusVS" />
            <code value="PHC1260" />
            <display value="Not pregnant within past year" />
          </coding>
        </valueCodeableConcept>
      </Observation>
    </resource>
  </entry>
  <entry>
    <fullUrl value="urn:uuid:3f98bfef-9924-411f-b98a-34b940bbb0a2" />
    <resource>
      <Observation>
        <id value="urn:uuid:3f98bfef-9924-411f-b98a-34b940bbb0a2" />
        <meta>
          <profile value="http://www.hl7.org/fhir/us/vrdr/StructureDefinition/VRDR-Decedent-Transportation-Role" />
        </meta>
        <status value="final" />
        <code>
          <coding>
            <system value="http://loinc.org" />
            <code value="69451-3" />
            <display value="Transportation role of decedent" />
          </coding>
        </code>
        <subject>
          <reference value="urn:uuid:f2d55847-8311-4d33-8011-83f590d8efb5" />
        </subject>
        <valueCodeableConcept>
          <coding>
            <system value="http://www.hl7.org/fhir/stu3/valueset-TransportationRelationships" />
            <code value="example-code" />
            <display value="Example Code" />
          </coding>
        </valueCodeableConcept>
      </Observation>
    </resource>
  </entry>
  <entry>
    <fullUrl value="urn:uuid:ff817aac-9ba9-43f8-91c8-7fe9dba44c64" />
    <resource>
      <Observation>
        <id value="urn:uuid:ff817aac-9ba9-43f8-91c8-7fe9dba44c64" />
        <meta>
          <profile value="http://www.hl7.org/fhir/us/vrdr/StructureDefinition/VRDR-Examiner-Contacted" />
        </meta>
        <status value="final" />
        <code>
          <coding>
            <system value="http://loinc.org" />
            <code value="74497-9" />
            <display value="Medical examiner or coroner was contacted" />
          </coding>
        </code>
        <subject>
          <reference value="urn:uuid:f2d55847-8311-4d33-8011-83f590d8efb5" />
        </subject>
        <valueBoolean value="false" />
      </Observation>
    </resource>
  </entry>
  <entry>
    <fullUrl value="urn:uuid:162e7632-a1d7-445d-b6ce-01a8d0a11fc1" />
    <resource>
      <Observation>
        <id value="urn:uuid:162e7632-a1d7-445d-b6ce-01a8d0a11fc1" />
        <meta>
          <profile value="http://www.hl7.org/fhir/us/vrdr/StructureDefinition/VRDR-Tobacco-Use-Contributed-To-Death" />
        </meta>
        <status value="final" />
        <code>
          <coding>
            <system value="http://loinc.org" />
            <code value="69443-0" />
            <display value="Did tobacco use contribute to death" />
          </coding>
        </code>
        <subject>
          <reference value="urn:uuid:f2d55847-8311-4d33-8011-83f590d8efb5" />
        </subject>
        <valueCodeableConcept>
          <coding>
            <system value="http://www.hl7.org/fhir/ValueSet/v2-0532" />
            <code value="Y" />
            <display value="Yes" />
          </coding>
        </valueCodeableConcept>
      </Observation>
    </resource>
  </entry>
  <entry>
    <fullUrl value="urn:uuid:f036d981-d247-426a-8b17-d8151d567fbd" />
    <resource>
      <Location>
        <id value="urn:uuid:f036d981-d247-426a-8b17-d8151d567fbd" />
        <meta>
          <profile value="http://hl7.org/fhir/us/vrdr/StructureDefinition/VRDR-Injury-Location" />
        </meta>
        <name value="Example Injury Location Name" />
        <description value="Example Injury Location Description" />
        <address>
          <line value="781 Example Street" />
          <line value="Line 2" />
          <city value="Bedford" />
          <district value="Middlesex" />
          <state value="Massachusetts" />
          <postalCode value="01730" />
          <country value="United States" />
        </address>
      </Location>
    </resource>
  </entry>
  <entry>
    <fullUrl value="urn:uuid:f6fbbca2-7596-43a7-974c-a97da9ba7a09" />
    <resource>
      <Location>
        <id value="urn:uuid:f6fbbca2-7596-43a7-974c-a97da9ba7a09" />
        <meta>
          <profile value="http://www.hl7.org/fhir/us/vrdr/StructureDefinition/VRDR-Death-Location" />
        </meta>
        <name value="Example Death Location Name" />
        <description value="Example Death Location Description" />
        <address>
          <line value="671 Example Street" />
          <line value="Line 2" />
          <city value="Bedford" />
          <district value="Middlesex" />
          <state value="Massachusetts" />
          <postalCode value="01730" />
          <country value="United States" />
        </address>
      </Location>
    </resource>
  </entry>
  <entry>
    <fullUrl value="urn:uuid:94e66e48-6624-4099-87d8-5af8c9d50eef" />
    <resource>
      <Observation>
        <id value="urn:uuid:94e66e48-6624-4099-87d8-5af8c9d50eef" />
        <meta>
          <profile value="http://www.hl7.org/fhir/us/vrdr/StructureDefinition/VRDR-Death-Date" />
        </meta>
        <status value="final" />
        <code>
          <coding>
            <system value="http://loinc.org" />
            <code value="81956-5" />
            <display value="Date and time of death" />
          </coding>
        </code>
        <subject>
          <reference value="urn:uuid:f2d55847-8311-4d33-8011-83f590d8efb5" />
        </subject>
        <effectiveDateTime value="2018-02-19T16:48:06.4988220-05:00" />
        <performer>
          <reference value="urn:uuid:cf6400ec-82ff-4b0c-80bc-d5d65ae42b61" />
        </performer>
        <component>
          <code>
            <coding>
              <system value="http://loinc.org" />
              <code value="80616-6" />
              <display value="Date and time pronounced dead" />
            </coding>
          </code>
          <valueDateTime value="2018-02-20T16:48:06.4988220-05:00" />
        </component>
      </Observation>
    </resource>
  </entry>
</Bundle>
