<Bundle xmlns="http://hl7.org/fhir">
  <id value="009b09b8-3665-4d09-88da-b1525ebec2fe" />
  <meta>
    <profile value="http://hl7.org/fhir/us/vrdr/StructureDefinition/VRDR-Death-Certificate-Document" />
  </meta>
  <identifier>
    <value value="42" />
  </identifier>
  <type value="document" />
  <entry>
    <fullUrl value="urn:uuid:824f47ff-73d4-4b0d-a463-9b5d0e7231c5" />
    <resource>
      <Composition>
        <id value="824f47ff-73d4-4b0d-a463-9b5d0e7231c5" />
        <meta>
          <profile value="http://hl7.org/fhir/us/vrdr/StructureDefinition/VRDR-Death-Certificate" />
        </meta>
        <identifier>
          <value value="1" />
        </identifier>
        <status value="final" />
        <type>
          <coding>
            <system value="http://loinc.org" />
            <code value="64297-5" />
            <display value="Death certificate" />
          </coding>
        </type>
        <subject>
          <reference value="urn:uuid:c234abf9-2374-4405-a821-2f26887176db" />
        </subject>
        <date value="2019-01-20T16:47:04.4988220-05:00" />
        <attester>
          <mode value="legal" />
          <time value="2019-01-29T16:48:06.4988220-05:00" />
          <party>
            <reference value="urn:uuid:a3e6a841-4f48-46e2-834c-25e48dffe22f" />
          </party>
        </attester>
        <event>
          <code>
            <coding>
              <system value="http://snomed.info/sct" />
              <code value="103693007" />
              <display value="Diagnostic procedure" />
            </coding>
          </code>
          <detail>
            <reference value="urn:uuid:a9f499a1-763b-4db1-b370-7517b8bbeb0f" />
          </detail>
        </event>
        <section>
          <entry>
            <reference value="urn:uuid:c234abf9-2374-4405-a821-2f26887176db" />
          </entry>
          <entry>
            <reference value="urn:uuid:a3e6a841-4f48-46e2-834c-25e48dffe22f" />
          </entry>
          <entry>
            <reference value="urn:uuid:04ab29f8-1c77-4fe7-af65-639c3bb72565" />
          </entry>
          <entry>
            <reference value="urn:uuid:a9f499a1-763b-4db1-b370-7517b8bbeb0f" />
          </entry>
          <entry>
            <reference value="urn:uuid:393db3d9-05ba-49e8-a273-d8efac807ae6" />
          </entry>
          <entry>
            <reference value="urn:uuid:3aa6836f-9257-4696-8a8c-39c8535422a8" />
          </entry>
          <entry>
            <reference value="urn:uuid:e8522803-dcaa-403c-b0d6-e552b0ae763c" />
          </entry>
          <entry>
            <reference value="urn:uuid:23354b7e-741b-4142-9d4f-887b69a5fd11" />
          </entry>
          <entry>
            <reference value="urn:uuid:b5f314d1-2b02-4962-b3fa-e56594264142" />
          </entry>
          <entry>
            <reference value="urn:uuid:1d364e09-2363-40fb-93a5-91a14bf0f6c1" />
          </entry>
          <entry>
            <reference value="urn:uuid:1762f01f-28f2-4e63-96e3-cb66415fc42c" />
          </entry>
          <entry>
            <reference value="urn:uuid:846c251a-f084-4fc9-97a2-7d10b7d896fb" />
          </entry>
          <entry>
            <reference value="urn:uuid:a7fc5f51-6bd9-4eee-8c91-b6825c9abdc4" />
          </entry>
          <entry>
            <reference value="urn:uuid:24b7a0d5-c45e-4889-a28f-1745a15e8cce" />
          </entry>
          <entry>
            <reference value="urn:uuid:2babd853-0730-4017-b442-d55954b1029a" />
          </entry>
          <entry>
            <reference value="urn:uuid:4bf73c4a-6d97-4186-85fb-6039c3825873" />
          </entry>
          <entry>
            <reference value="urn:uuid:bba23dd5-52ec-4505-8a01-a0efd5976ea5" />
          </entry>
          <entry>
            <reference value="urn:uuid:dda9f436-adc5-43c0-97db-6af75afef361" />
          </entry>
          <entry>
            <reference value="urn:uuid:f2c03495-12fc-44c2-a61d-e2db763b9e4a" />
          </entry>
          <entry>
            <reference value="urn:uuid:5583d99e-8748-491e-a89e-0999c6651672" />
          </entry>
          <entry>
            <reference value="urn:uuid:674f28e7-5f73-4d8f-871a-97600205b816" />
          </entry>
          <entry>
            <reference value="urn:uuid:ad9497bc-e921-4cc9-90ab-36e636748914" />
          </entry>
          <entry>
            <reference value="urn:uuid:e52c0093-787c-486b-bb8e-47a437ae7cc1" />
          </entry>
          <entry>
            <reference value="urn:uuid:524fb5de-22d4-4567-8785-77a259745aff" />
          </entry>
          <entry>
            <reference value="urn:uuid:26205372-9858-4b15-8a24-2b06e1f6c4bc" />
          </entry>
          <entry>
            <reference value="urn:uuid:0c6eb02e-2403-4df5-8aee-018186305a1a" />
          </entry>
          <entry>
            <reference value="urn:uuid:89c2629a-00ed-46e2-94e6-256a3d500906" />
          </entry>
          <entry>
            <reference value="urn:uuid:58fbeb7e-6c95-4d29-bbfc-b1d379a0dbd8" />
          </entry>
          <entry>
            <reference value="urn:uuid:d1f2ba40-1da4-43ac-abce-fecaccbc2511" />
          </entry>
          <entry>
            <reference value="urn:uuid:00284647-2daf-4db3-afb2-0e498ac8d1e5" />
          </entry>
          <entry>
            <reference value="urn:uuid:fa59e4f8-5523-464f-92ca-71c78c9ef6a3" />
          </entry>
          <entry>
            <reference value="urn:uuid:215bdfcd-61bc-4e01-8074-b1035606d1ca" />
          </entry>
        </section>
      </Composition>
    </resource>
  </entry>
  <entry>
    <fullUrl value="urn:uuid:c234abf9-2374-4405-a821-2f26887176db" />
    <resource>
      <Patient>
        <id value="c234abf9-2374-4405-a821-2f26887176db" />
        <meta>
          <profile value="http://hl7.org/fhir/us/vrdr/StructureDefinition/VRDR-Decedent" />
        </meta>
        <extension url="http://hl7.org/fhir/us/core/StructureDefinition/us-core-birthsex">
          <valueCodeableConcept>
            <coding>
              <system value="http://hl7.org/fhir/us/core/ValueSet/us-core-birthsex" />
              <code value="M" />
              <display value="Male" />
            </coding>
          </valueCodeableConcept>
        </extension>
        <extension url="http://hl7.org/fhir/us/core/StructureDefinition/us-core-ethnicity">
          <extension url="ombCategory">
            <valueCoding>
              <system value="urn:oid:2.16.840.1.113883.6.238" />
              <code value="2135-2" />
              <display value="Hispanic or Latino" />
            </valueCoding>
          </extension>
          <extension url="detailed">
            <valueCoding>
              <system value="urn:oid:2.16.840.1.113883.6.238" />
              <code value="2180-8" />
              <display value="Puerto Rican" />
            </valueCoding>
          </extension>
          <extension url="text">
            <valueString value="Hispanic or Latino, Puerto Rican" />
          </extension>
        </extension>
        <extension url="http://hl7.org/fhir/us/core/StructureDefinition/us-core-race">
          <extension url="ombCategory">
            <valueCoding>
              <system value="urn:oid:2.16.840.1.113883.6.238" />
              <code value="2106-3" />
              <display value="White" />
            </valueCoding>
          </extension>
          <extension url="ombCategory">
            <valueCoding>
              <system value="urn:oid:2.16.840.1.113883.6.238" />
              <code value="2076-8" />
              <display value="Native Hawaiian or Other Pacific Islander" />
            </valueCoding>
          </extension>
          <extension url="detailed">
            <valueCoding>
              <system value="urn:oid:2.16.840.1.113883.6.238" />
              <code value="2079-2" />
              <display value="Native Hawaiian" />
            </valueCoding>
          </extension>
          <extension url="text">
            <valueString value="White, Native Hawaiian or Other Pacific Islander, Native Hawaiian" />
          </extension>
        </extension>
        <extension url="http://hl7.org/fhir/StructureDefinition/birthPlace">
          <valueAddress>
            <line value="1011 Example Street" />
            <line value="Line 2" />
            <city value="Bedford" />
            <district value="Middlesex" />
            <state value="Massachusetts" />
            <postalCode value="01730" />
            <country value="United States" />
          </valueAddress>
        </extension>
        <identifier>
          <type>
            <coding>
              <code value="BR" />
              <display value="Social Beneficiary Identifier" />
            </coding>
          </type>
          <system value="http://hl7.org/fhir/sid/us-ssn" />
          <value value="123456789" />
        </identifier>
        <name>
          <use value="official" />
          <family value="Last" />
          <given value="Example" />
          <given value="Something" />
          <given value="Middle" />
          <suffix value="Jr." />
        </name>
        <name>
          <use value="nickname" />
          <family value="LastNameAlias" />
          <given value="FirstNameAlias" />
          <given value="MiddleAlias" />
          <suffix value="Jr." />
        </name>
        <gender value="male" />
        <birthDate value="1940-02-19T16:48:06.4988220-05:00" />
        <address>
          <line value="101 Example Street" />
          <line value="Line 2" />
          <city value="Bedford" />
          <district value="Middlesex" />
          <state value="Massachusetts" />
          <postalCode value="01730" />
          <country value="United States" />
        </address>
        <maritalStatus>
          <coding>
            <system value="http://hl7.org/fhir/v3/MaritalStatus" />
            <code value="S" />
            <display value="Never Married" />
          </coding>
        </maritalStatus>
      </Patient>
    </resource>
  </entry>
  <entry>
    <fullUrl value="urn:uuid:a3e6a841-4f48-46e2-834c-25e48dffe22f" />
    <resource>
      <Practitioner>
        <id value="a3e6a841-4f48-46e2-834c-25e48dffe22f" />
        <meta>
          <profile value="http://hl7.org/fhir/us/vrdr/StructureDefinition/VRDR-Certifier" />
        </meta>
        <name>
          <use value="official" />
          <family value="Last" />
          <given value="Doctor" />
          <given value="Middle" />
          <suffix value="Jr." />
        </name>
        <address>
          <line value="11 Example Street" />
          <line value="Line 2" />
          <city value="Bedford" />
          <district value="Middlesex" />
          <state value="Massachusetts" />
          <postalCode value="01730" />
          <country value="United States" />
        </address>
        <qualification>
          <identifier>
            <value value="789123456" />
          </identifier>
          <code>
            <coding>
              <system value="http://hl7.org/fhir/v2/0360/2.7" />
              <code value="MD" />
              <display value="Doctor of Medicine" />
            </coding>
          </code>
        </qualification>
      </Practitioner>
    </resource>
  </entry>
  <entry>
    <fullUrl value="urn:uuid:04ab29f8-1c77-4fe7-af65-639c3bb72565" />
    <resource>
      <Practitioner>
        <id value="04ab29f8-1c77-4fe7-af65-639c3bb72565" />
        <meta>
          <profile value="http://hl7.org/fhir/us/vrdr/StructureDefinition/VRDR-Mortician" />
        </meta>
        <name>
          <use value="official" />
          <family value="Last" />
          <given value="FD" />
          <given value="Middle" />
          <suffix value="Jr." />
        </name>
        <qualification>
          <identifier>
            <value value="9876543210" />
          </identifier>
        </qualification>
      </Practitioner>
    </resource>
  </entry>
  <entry>
    <fullUrl value="urn:uuid:a9f499a1-763b-4db1-b370-7517b8bbeb0f" />
    <resource>
      <Procedure>
        <id value="a9f499a1-763b-4db1-b370-7517b8bbeb0f" />
        <meta>
          <profile value="http://hl7.org/fhir/us/vrdr/StructureDefinition/VRDR-Death-Certification" />
        </meta>
        <status value="completed" />
        <category>
          <coding>
            <system value="http://snomed.info/sct" />
            <code value="103693007" />
            <display value="Diagnostic procedure" />
          </coding>
        </category>
        <code>
          <coding>
            <system value="http://snomed.info/sct" />
            <code value="308646001" />
            <display value="Death certification" />
          </coding>
        </code>
        <performedDateTime value="2019-01-29T16:48:06.4988220-05:00" />
        <performer>
          <role>
            <coding>
              <system value="http://snomed.info/sct" />
              <code value="309343006" />
              <display value="Physician" />
            </coding>
          </role>
          <actor>
            <reference value="urn:uuid:a3e6a841-4f48-46e2-834c-25e48dffe22f" />
          </actor>
        </performer>
      </Procedure>
    </resource>
  </entry>
  <entry>
    <fullUrl value="urn:uuid:393db3d9-05ba-49e8-a273-d8efac807ae6" />
    <resource>
      <Organization>
        <id value="393db3d9-05ba-49e8-a273-d8efac807ae6" />
        <meta>
          <profile value="http://hl7.org/fhir/us/vrdr/StructureDefinition/VRDR-Interested-Party" />
        </meta>
        <identifier>
          <value value="1010101" />
        </identifier>
        <active value="true" />
        <type>
          <coding>
            <system value="http://terminology.hl7.org/CodeSystem/organization-type" />
            <code value="prov" />
            <display value="Healthcare Provider" />
          </coding>
        </type>
        <name value="Example Hospital" />
        <address>
          <line value="10 Example Street" />
          <line value="Line 2" />
          <city value="Bedford" />
          <district value="Middlesex" />
          <state value="Massachusetts" />
          <postalCode value="01730" />
          <country value="United States" />
        </address>
      </Organization>
    </resource>
  </entry>
  <entry>
    <fullUrl value="urn:uuid:3aa6836f-9257-4696-8a8c-39c8535422a8" />
    <resource>
      <Organization>
        <id value="3aa6836f-9257-4696-8a8c-39c8535422a8" />
        <meta>
          <profile value="http://hl7.org/fhir/us/vrdr/StructureDefinition/VRDR-Funeral-Home" />
        </meta>
        <type>
          <coding>
            <code value="bus" />
            <display value="Non-Healthcare Business or Corporation" />
          </coding>
        </type>
        <name value="Smith Funeral Home" />
        <address>
          <line value="1011010 Example Street" />
          <line value="Line 2" />
          <city value="Bedford" />
          <district value="Middlesex" />
          <state value="Massachusetts" />
          <postalCode value="01730" />
          <country value="United States" />
        </address>
      </Organization>
    </resource>
  </entry>
  <entry>
    <fullUrl value="urn:uuid:e8522803-dcaa-403c-b0d6-e552b0ae763c" />
    <resource>
      <PractitionerRole>
        <id value="e8522803-dcaa-403c-b0d6-e552b0ae763c" />
        <meta>
          <profile value="http://hl7.org/fhir/us/vrdr/StructureDefinition/VRDR-Funeral-Home-Director" />
        </meta>
        <practitioner>
          <reference value="urn:uuid:04ab29f8-1c77-4fe7-af65-639c3bb72565" />
        </practitioner>
        <organization>
          <reference value="urn:uuid:3aa6836f-9257-4696-8a8c-39c8535422a8" />
        </organization>
      </PractitionerRole>
    </resource>
  </entry>
  <entry>
    <fullUrl value="urn:uuid:23354b7e-741b-4142-9d4f-887b69a5fd11" />
    <resource>
      <List>
        <id value="23354b7e-741b-4142-9d4f-887b69a5fd11" />
        <meta>
          <profile value="http://hl7.org/fhir/us/vrdr/StructureDefinition/VRDR-Cause-of-Death-Pathway" />
        </meta>
        <status value="current" />
        <mode value="snapshot" />
        <source>
          <reference value="urn:uuid:a3e6a841-4f48-46e2-834c-25e48dffe22f" />
        </source>
        <orderedBy>
          <coding>
            <code value="priority" />
          </coding>
        </orderedBy>
        <entry>
          <item>
            <reference value="urn:uuid:846c251a-f084-4fc9-97a2-7d10b7d896fb" />
          </item>
        </entry>
        <entry>
          <item>
            <reference value="urn:uuid:a7fc5f51-6bd9-4eee-8c91-b6825c9abdc4" />
          </item>
        </entry>
        <entry>
          <item>
            <reference value="urn:uuid:24b7a0d5-c45e-4889-a28f-1745a15e8cce" />
          </item>
        </entry>
        <entry>
          <item>
            <reference value="urn:uuid:2babd853-0730-4017-b442-d55954b1029a" />
          </item>
        </entry>
      </List>
    </resource>
  </entry>
  <entry>
    <fullUrl value="b5f314d1-2b02-4962-b3fa-e56594264142" />
    <resource>
      <Location>
        <id value="b5f314d1-2b02-4962-b3fa-e56594264142" />
        <meta>
          <profile value="http://hl7.org/fhir/us/vrdr/StructureDefinition/VRDR-Disposition-Location" />
        </meta>
        <name value="Bedford Cemetery" />
        <address>
          <line value="603 Example Street" />
          <line value="Line 2" />
          <city value="Bedford" />
          <district value="Middlesex" />
          <state value="Massachusetts" />
          <postalCode value="01730" />
          <country value="United States" />
        </address>
      </Location>
    </resource>
  </entry>
  <entry>
    <fullUrl value="urn:uuid:1d364e09-2363-40fb-93a5-91a14bf0f6c1" />
    <resource>
      <Observation>
        <id value="1d364e09-2363-40fb-93a5-91a14bf0f6c1" />
        <meta>
          <profile value="http://hl7.org/fhir/us/vrdr/StructureDefinition/VRDR-Manner-of-Death" />
        </meta>
        <status value="final" />
        <code>
          <coding>
            <system value="http://loinc.org" />
            <code value="69449-7" />
            <display value="Manner of death" />
          </coding>
        </code>
        <subject>
          <reference value="urn:uuid:c234abf9-2374-4405-a821-2f26887176db" />
        </subject>
        <performer>
          <reference value="urn:uuid:a3e6a841-4f48-46e2-834c-25e48dffe22f" />
        </performer>
        <valueCodeableConcept>
          <coding>
            <code value="7878000" />
            <display value="Accident" />
          </coding>
        </valueCodeableConcept>
      </Observation>
    </resource>
  </entry>
  <entry>
    <fullUrl value="urn:uuid:1762f01f-28f2-4e63-96e3-cb66415fc42c" />
    <resource>
      <Condition>
        <id value="1762f01f-28f2-4e63-96e3-cb66415fc42c" />
        <meta>
          <profile value="http://hl7.org/fhir/us/vrdr/StructureDefinition/VRDR-Condition-Contributing-To-Death" />
        </meta>
        <code>
          <text value="Example Contributing Conditions" />
        </code>
        <subject>
          <reference value="urn:uuid:c234abf9-2374-4405-a821-2f26887176db" />
        </subject>
      </Condition>
    </resource>
  </entry>
  <entry>
    <fullUrl value="urn:uuid:846c251a-f084-4fc9-97a2-7d10b7d896fb" />
    <resource>
      <Condition>
        <id value="846c251a-f084-4fc9-97a2-7d10b7d896fb" />
        <meta>
          <profile value="http://hl7.org/fhir/us/vrdr/StructureDefinition/VRDR-Cause-Of-Death-Condition" />
        </meta>
        <code>
          <coding>
            <system value="http://hl7.org/fhir/sid/icd-10" />
            <code value="I21.0" />
            <display value="Acute transmural myocardial infarction of anterior wall" />
          </coding>
          <text value="Rupture of myocardium" />
        </code>
        <subject>
          <reference value="urn:uuid:c234abf9-2374-4405-a821-2f26887176db" />
        </subject>
        <onsetString value="minutes" />
        <asserter>
          <reference value="urn:uuid:a3e6a841-4f48-46e2-834c-25e48dffe22f" />
        </asserter>
      </Condition>
    </resource>
  </entry>
  <entry>
    <fullUrl value="urn:uuid:a7fc5f51-6bd9-4eee-8c91-b6825c9abdc4" />
    <resource>
      <Condition>
        <id value="a7fc5f51-6bd9-4eee-8c91-b6825c9abdc4" />
        <meta>
          <profile value="http://hl7.org/fhir/us/vrdr/StructureDefinition/VRDR-Cause-Of-Death-Condition" />
        </meta>
        <code>
          <coding>
            <system value="http://hl7.org/fhir/sid/icd-10" />
            <code value="I21.9" />
            <display value="Acute myocardial infarction, unspecified" />
          </coding>
          <text value="Acute myocardial infarction" />
        </code>
        <subject>
          <reference value="urn:uuid:c234abf9-2374-4405-a821-2f26887176db" />
        </subject>
        <onsetString value="6 days" />
        <asserter>
          <reference value="urn:uuid:a3e6a841-4f48-46e2-834c-25e48dffe22f" />
        </asserter>
      </Condition>
    </resource>
  </entry>
  <entry>
    <fullUrl value="urn:uuid:24b7a0d5-c45e-4889-a28f-1745a15e8cce" />
    <resource>
      <Condition>
        <id value="24b7a0d5-c45e-4889-a28f-1745a15e8cce" />
        <meta>
          <profile value="http://hl7.org/fhir/us/vrdr/StructureDefinition/VRDR-Cause-Of-Death-Condition" />
        </meta>
        <code>
          <text value="Coronary artery thrombosis" />
        </code>
        <subject>
          <reference value="urn:uuid:c234abf9-2374-4405-a821-2f26887176db" />
        </subject>
        <onsetString value="5 years" />
        <asserter>
          <reference value="urn:uuid:a3e6a841-4f48-46e2-834c-25e48dffe22f" />
        </asserter>
      </Condition>
    </resource>
  </entry>
  <entry>
    <fullUrl value="urn:uuid:2babd853-0730-4017-b442-d55954b1029a" />
    <resource>
      <Condition>
        <id value="2babd853-0730-4017-b442-d55954b1029a" />
        <meta>
          <profile value="http://hl7.org/fhir/us/vrdr/StructureDefinition/VRDR-Cause-Of-Death-Condition" />
        </meta>
        <code>
          <text value="Atherosclerotic coronary artery disease" />
        </code>
        <subject>
          <reference value="urn:uuid:c234abf9-2374-4405-a821-2f26887176db" />
        </subject>
        <onsetString value="7 years" />
        <asserter>
          <reference value="urn:uuid:a3e6a841-4f48-46e2-834c-25e48dffe22f" />
        </asserter>
      </Condition>
    </resource>
  </entry>
  <entry>
    <fullUrl value="urn:uuid:4bf73c4a-6d97-4186-85fb-6039c3825873" />
    <resource>
      <RelatedPerson>
        <id value="4bf73c4a-6d97-4186-85fb-6039c3825873" />
        <meta>
          <profile value="http://hl7.org/fhir/us/vrdr/StructureDefinition/VRDR-Decedent-Father" />
        </meta>
        <patient>
          <reference value="urn:uuid:c234abf9-2374-4405-a821-2f26887176db" />
        </patient>
        <relationship>
          <coding>
            <code value="FTH" />
          </coding>
        </relationship>
        <name>
          <family value="Last" />
          <given value="Father" />
          <given value="Middle" />
          <suffix value="Sr." />
        </name>
      </RelatedPerson>
    </resource>
  </entry>
  <entry>
    <fullUrl value="urn:uuid:bba23dd5-52ec-4505-8a01-a0efd5976ea5" />
    <resource>
      <RelatedPerson>
        <id value="bba23dd5-52ec-4505-8a01-a0efd5976ea5" />
        <meta>
          <profile value="http://hl7.org/fhir/us/vrdr/StructureDefinition/VRDR-Decedent-Mother" />
        </meta>
        <patient>
          <reference value="urn:uuid:c234abf9-2374-4405-a821-2f26887176db" />
        </patient>
        <relationship>
          <coding>
            <code value="MTH" />
          </coding>
        </relationship>
        <name>
          <family value="Maiden" />
          <given value="Mother" />
          <given value="Middle" />
          <suffix value="Dr." />
        </name>
      </RelatedPerson>
    </resource>
  </entry>
  <entry>
    <fullUrl value="urn:uuid:dda9f436-adc5-43c0-97db-6af75afef361" />
    <resource>
      <RelatedPerson>
        <id value="dda9f436-adc5-43c0-97db-6af75afef361" />
        <meta>
          <profile value="http://hl7.org/fhir/us/vrdr/StructureDefinition/VRDR-Decedent-Spouse" />
        </meta>
        <patient>
          <reference value="urn:uuid:c234abf9-2374-4405-a821-2f26887176db" />
        </patient>
        <relationship>
          <coding>
            <code value="SPS" />
          </coding>
        </relationship>
        <name>
          <family value="Last" />
          <given value="Spouse" />
          <given value="Middle" />
          <suffix value="Ph.D." />
        </name>
      </RelatedPerson>
    </resource>
  </entry>
  <entry>
    <fullUrl value="urn:uuid:f2c03495-12fc-44c2-a61d-e2db763b9e4a" />
    <resource>
      <Observation>
        <id value="f2c03495-12fc-44c2-a61d-e2db763b9e4a" />
        <meta>
          <profile value="http://hl7.org/fhir/us/vrdr/StructureDefinition/VRDR-Decedent-Education-Level" />
        </meta>
        <status value="final" />
        <code>
          <coding>
            <system value="http://loinc.org" />
            <code value="80913-7" />
            <display value="Highest level of education" />
          </coding>
        </code>
        <subject>
          <reference value="urn:uuid:c234abf9-2374-4405-a821-2f26887176db" />
        </subject>
        <valueCodeableConcept>
          <coding>
            <system value="http://hl7.org/fhir/v3/EducationLevel" />
            <code value="BD" />
            <display value="College or baccalaureate degree complete" />
          </coding>
        </valueCodeableConcept>
      </Observation>
    </resource>
  </entry>
  <entry>
    <fullUrl value="urn:uuid:5583d99e-8748-491e-a89e-0999c6651672" />
    <resource>
      <Observation>
        <id value="5583d99e-8748-491e-a89e-0999c6651672" />
        <meta>
          <profile value="http://hl7.org/fhir/us/vrdr/StructureDefinition/VRDR-Birth-Record-Identifier" />
        </meta>
        <status value="final" />
        <code>
          <coding>
            <code value="BR" />
          </coding>
        </code>
        <subject>
          <reference value="urn:uuid:c234abf9-2374-4405-a821-2f26887176db" />
        </subject>
        <valueString value="4242123" />
      </Observation>
    </resource>
  </entry>
  <entry>
    <fullUrl value="urn:uuid:674f28e7-5f73-4d8f-871a-97600205b816" />
    <resource>
      <Observation>
        <id value="674f28e7-5f73-4d8f-871a-97600205b816" />
        <meta>
          <profile value="http://hl7.org/fhir/us/vrdr/StructureDefinition/VRDR-Decedent-Employment-History" />
        </meta>
        <status value="final" />
        <code>
          <coding>
            <system value="http://loinc.org" />
            <code value="74165-2" />
            <display value="History of employment status" />
          </coding>
        </code>
        <subject>
          <reference value="urn:uuid:c234abf9-2374-4405-a821-2f26887176db" />
        </subject>
        <component>
          <code>
            <coding>
              <system value="http://loinc.org" />
              <code value="21847-9" />
              <display value="Usual occupation" />
            </coding>
          </code>
          <valueCodeableConcept>
            <coding>
              <system value="http://hl7.org/fhir/ValueSet/occupation-cdc-census-2010" />
              <code value="1340" />
              <display value="Biomedical engineers" />
            </coding>
          </valueCodeableConcept>
        </component>
        <component>
          <code>
            <coding>
              <system value="http://loinc.org" />
              <code value="21844-6" />
              <display value="Usual industry" />
            </coding>
          </code>
          <valueCodeableConcept>
            <coding>
              <system value="http://hl7.org/fhir/ValueSet/industry-cdc-census-2010" />
              <code value="7280" />
              <display value="Accounting, tax preparation, bookkeeping, and payroll services" />
            </coding>
          </valueCodeableConcept>
        </component>
        <component>
          <code>
            <coding>
              <system value="http://loinc.org" />
              <code value="55280-2" />
              <display value="Military service" />
            </coding>
          </code>
          <valueCodeableConcept>
            <coding>
              <system value="http://hl7.org/fhir/ValueSet/v2-0532" />
              <code value="Y" />
              <display value="Yes" />
            </coding>
          </valueCodeableConcept>
        </component>
      </Observation>
    </resource>
  </entry>
  <entry>
    <fullUrl value="urn:uuid:ad9497bc-e921-4cc9-90ab-36e636748914" />
    <resource>
      <Observation>
        <id value="ad9497bc-e921-4cc9-90ab-36e636748914" />
        <meta>
          <profile value="http://hl7.org/fhir/us/vrdr/StructureDefinition/VRDR-Decedent-Disposition-Method" />
        </meta>
        <extension url="http://hl7.org/fhir/us/vrdr/StructureDefinition/VRDR-Disposition-Location">
          <valueReference>
            <reference value="urn:uuid:b5f314d1-2b02-4962-b3fa-e56594264142" />
          </valueReference>
        </extension>
        <status value="final" />
        <code>
          <coding>
            <system value="http://loinc.org" />
            <code value="80905-3" />
            <display value="Body disposition method" />
          </coding>
        </code>
        <subject>
          <reference value="urn:uuid:c234abf9-2374-4405-a821-2f26887176db" />
        </subject>
        <performer>
          <reference value="urn:uuid:04ab29f8-1c77-4fe7-af65-639c3bb72565" />
        </performer>
        <valueCodeableConcept>
          <coding>
            <system value="http://snomed.info/sct" />
            <code value="449971000124106" />
            <display value="Burial" />
          </coding>
        </valueCodeableConcept>
      </Observation>
    </resource>
  </entry>
  <entry>
    <fullUrl value="urn:uuid:e52c0093-787c-486b-bb8e-47a437ae7cc1" />
    <resource>
      <Observation>
        <id value="e52c0093-787c-486b-bb8e-47a437ae7cc1" />
        <meta>
          <profile value="http://hl7.org/fhir/us/vrdr/StructureDefinition/VRDR-Autopsy-Performed-Indicator" />
        </meta>
        <status value="final" />
        <code>
          <coding>
            <system value="http://loinc.org" />
            <code value="85699-7" />
            <display value="Autopsy was performed" />
          </coding>
        </code>
        <subject>
          <reference value="urn:uuid:c234abf9-2374-4405-a821-2f26887176db" />
        </subject>
        <valueCodeableConcept>
          <coding>
            <system value="http://hl7.org/fhir/ValueSet/v2-0532" />
            <code value="Y" />
            <display value="Yes" />
          </coding>
        </valueCodeableConcept>
        <component>
          <code>
            <coding>
              <system value="http://loinc.org" />
              <code value="69436-4" />
              <display value="Autopsy results available" />
            </coding>
          </code>
          <valueCodeableConcept>
            <coding>
              <system value="http://hl7.org/fhir/ValueSet/v2-0532" />
              <code value="Y" />
              <display value="Yes" />
            </coding>
          </valueCodeableConcept>
        </component>
      </Observation>
    </resource>
  </entry>
  <entry>
    <fullUrl value="urn:uuid:524fb5de-22d4-4567-8785-77a259745aff" />
    <resource>
      <Observation>
        <id value="524fb5de-22d4-4567-8785-77a259745aff" />
        <meta>
          <profile value="http://hl7.org/fhir/us/vrdr/StructureDefinition/VRDR-Decedent-Age" />
        </meta>
        <status value="final" />
        <code>
          <coding>
            <system value="http://loinc.org" />
            <code value="30525-0" />
            <display value="Age" />
          </coding>
        </code>
        <subject>
          <reference value="urn:uuid:c234abf9-2374-4405-a821-2f26887176db" />
        </subject>
        <valueQuantity>
          <value value="79" />
          <unit value="a" />
        </valueQuantity>
      </Observation>
    </resource>
  </entry>
  <entry>
    <fullUrl value="urn:uuid:26205372-9858-4b15-8a24-2b06e1f6c4bc" />
    <resource>
      <Observation>
        <id value="26205372-9858-4b15-8a24-2b06e1f6c4bc" />
        <meta>
          <profile value="http://hl7.org/fhir/us/vrdr/StructureDefinition/VRDR-Decedent-Pregnancy" />
        </meta>
        <status value="final" />
        <code>
          <coding>
            <system value="http://loinc.org" />
            <code value="69442-2" />
            <display value="Timing of recent pregnancy in relation to death" />
          </coding>
        </code>
        <subject>
          <reference value="urn:uuid:c234abf9-2374-4405-a821-2f26887176db" />
        </subject>
        <valueCodeableConcept>
          <coding>
            <system value="http://hl7.org/fhir/stu3/valueset-PregnancyStatusVS" />
            <code value="NA" />
            <display value="not applicable" />
          </coding>
        </valueCodeableConcept>
      </Observation>
    </resource>
  </entry>
  <entry>
    <fullUrl value="urn:uuid:0c6eb02e-2403-4df5-8aee-018186305a1a" />
    <resource>
      <Observation>
        <id value="0c6eb02e-2403-4df5-8aee-018186305a1a" />
        <meta>
          <profile value="http://hl7.org/fhir/us/vrdr/StructureDefinition/VRDR-Decedent-Transportation-Role" />
        </meta>
        <status value="final" />
        <code>
          <coding>
            <system value="http://loinc.org" />
            <code value="69451-3" />
            <display value="Transportation role of decedent" />
          </coding>
        </code>
        <subject>
          <reference value="urn:uuid:c234abf9-2374-4405-a821-2f26887176db" />
        </subject>
        <valueCodeableConcept>
          <coding>
            <system value="http://hl7.org/fhir/stu3/valueset-TransportationRelationships" />
            <code value="example-code" />
            <display value="Example Code" />
          </coding>
        </valueCodeableConcept>
      </Observation>
    </resource>
  </entry>
  <entry>
    <fullUrl value="urn:uuid:89c2629a-00ed-46e2-94e6-256a3d500906" />
    <resource>
      <Observation>
        <id value="89c2629a-00ed-46e2-94e6-256a3d500906" />
        <meta>
          <profile value="http://hl7.org/fhir/us/vrdr/StructureDefinition/VRDR-Examiner-Contacted" />
        </meta>
        <status value="final" />
        <code>
          <coding>
            <system value="http://loinc.org" />
            <code value="74497-9" />
            <display value="Medical examiner or coroner was contacted" />
          </coding>
        </code>
        <subject>
          <reference value="urn:uuid:c234abf9-2374-4405-a821-2f26887176db" />
        </subject>
        <valueBoolean value="false" />
      </Observation>
    </resource>
  </entry>
  <entry>
    <fullUrl value="urn:uuid:58fbeb7e-6c95-4d29-bbfc-b1d379a0dbd8" />
    <resource>
      <Observation>
        <id value="58fbeb7e-6c95-4d29-bbfc-b1d379a0dbd8" />
        <meta>
          <profile value="http://hl7.org/fhir/us/vrdr/StructureDefinition/VRDR-Tobacco-Use-Contributed-To-Death" />
        </meta>
        <status value="final" />
        <code>
          <coding>
            <system value="http://loinc.org" />
            <code value="69443-0" />
            <display value="Did tobacco use contribute to death" />
          </coding>
        </code>
        <subject>
          <reference value="urn:uuid:c234abf9-2374-4405-a821-2f26887176db" />
        </subject>
        <valueCodeableConcept>
          <coding>
            <system value="http://hl7.org/fhir/ValueSet/v2-0532" />
            <code value="Y" />
            <display value="Yes" />
          </coding>
        </valueCodeableConcept>
      </Observation>
    </resource>
  </entry>
  <entry>
    <fullUrl value="urn:uuid:d1f2ba40-1da4-43ac-abce-fecaccbc2511" />
    <resource>
      <Location>
        <id value="d1f2ba40-1da4-43ac-abce-fecaccbc2511" />
        <meta>
          <profile value="http://hl7.org/fhir/us/vrdr/StructureDefinition/VRDR-Injury-Location" />
        </meta>
        <name value="Example Injury Location Name" />
        <description value="Example Injury Location Description" />
        <address>
          <line value="781 Example Street" />
          <line value="Line 2" />
          <city value="Bedford" />
          <district value="Middlesex" />
          <state value="Massachusetts" />
          <postalCode value="01730" />
          <country value="United States" />
        </address>
      </Location>
    </resource>
  </entry>
  <entry>
    <fullUrl value="urn:uuid:00284647-2daf-4db3-afb2-0e498ac8d1e5" />
    <resource>
      <Observation>
        <id value="00284647-2daf-4db3-afb2-0e498ac8d1e5" />
        <meta>
          <profile value="http://hl7.org/fhir/us/vrdr/StructureDefinition/VRDR-Injury-Incident" />
        </meta>
        <status value="final" />
        <code>
          <coding>
            <system value="http://loinc.org" />
            <code value="11374-6" />
            <display value="Injury incident description" />
          </coding>
        </code>
        <subject>
          <reference value="urn:uuid:c234abf9-2374-4405-a821-2f26887176db" />
        </subject>
        <effectiveDateTime value="2018-02-19T16:48:06.4988220-05:00" />
      </Observation>
    </resource>
  </entry>
  <entry>
    <fullUrl value="urn:uuid:fa59e4f8-5523-464f-92ca-71c78c9ef6a3" />
    <resource>
      <Location>
        <id value="fa59e4f8-5523-464f-92ca-71c78c9ef6a3" />
        <meta>
          <profile value="http://hl7.org/fhir/us/vrdr/StructureDefinition/VRDR-Death-Location" />
        </meta>
        <name value="Example Death Location Name" />
        <description value="Example Death Location Description" />
        <address>
          <line value="671 Example Street" />
          <line value="Line 2" />
          <city value="Bedford" />
          <district value="Middlesex" />
          <state value="Massachusetts" />
          <postalCode value="01730" />
          <country value="United States" />
        </address>
      </Location>
    </resource>
  </entry>
  <entry>
    <fullUrl value="urn:uuid:215bdfcd-61bc-4e01-8074-b1035606d1ca" />
    <resource>
      <Observation>
        <id value="215bdfcd-61bc-4e01-8074-b1035606d1ca" />
        <meta>
          <profile value="http://hl7.org/fhir/us/vrdr/StructureDefinition/VRDR-Death-Date" />
        </meta>
        <status value="final" />
        <code>
          <coding>
            <system value="http://loinc.org" />
            <code value="81956-5" />
            <display value="Date and time of death" />
          </coding>
        </code>
        <subject>
          <reference value="urn:uuid:c234abf9-2374-4405-a821-2f26887176db" />
        </subject>
        <effectiveDateTime value="2018-02-19T16:48:06.4988220-05:00" />
        <performer>
          <reference value="urn:uuid:a3e6a841-4f48-46e2-834c-25e48dffe22f" />
        </performer>
        <component>
          <code>
            <coding>
              <system value="http://loinc.org" />
              <code value="80616-6" />
              <display value="Date and time pronounced dead" />
            </coding>
          </code>
          <valueDateTime value="2018-02-20T16:48:06.4988220-05:00" />
        </component>
      </Observation>
    </resource>
  </entry>
</Bundle>


