<Bundle xmlns="http://hl7.org/fhir">
  <id value="urn:uuid:b0aecefd-dc7d-4fab-b0f0-9fc3b90f98f2" />
  <meta>
    <profile value="http://hl7.org/fhir/us/vrdr/StructureDefinition/VRDR-Death-Certificate-Document" />
  </meta>
  <identifier>
    <value value="42" />
  </identifier>
  <type value="document" />
  <entry>
    <fullUrl value="urn:uuid:111436cd-94dc-4c44-aaf2-fce962b2d5b0" />
    <resource>
      <Composition>
        <id value="urn:uuid:111436cd-94dc-4c44-aaf2-fce962b2d5b0" />
        <meta>
          <profile value="http://hl7.org/fhir/us/vrdr/StructureDefinition/VRDR-Death-Certificate" />
        </meta>
        <identifier>
          <value value="1" />
        </identifier>
        <status value="final" />
        <type>
          <coding>
            <system value="http://loinc.org" />
            <code value="64297-5" />
            <display value="Death certificate" />
          </coding>
        </type>
        <subject>
          <reference value="urn:uuid:e15965b2-5b15-46e5-9700-14b9cd94df95" />
        </subject>
        <date value="2019-01-20T16:47:04.4988220-05:00" />
        <attester>
          <mode value="legal" />
          <time value="2019-01-29T16:48:06.4988220-05:00" />
          <party>
            <reference value="urn:uuid:81609459-290d-4fb8-9966-aabdfd98729f" />
          </party>
        </attester>
        <event>
          <code>
            <coding>
              <system value="http://snomed.info/sct" />
              <code value="103693007" />
              <display value="Diagnostic procedure" />
            </coding>
          </code>
          <detail>
            <reference value="urn:uuid:3f0c4e51-dee5-4262-8ef3-145a64f5b719" />
          </detail>
        </event>
        <section>
          <entry>
            <reference value="urn:uuid:e15965b2-5b15-46e5-9700-14b9cd94df95" />
          </entry>
          <entry>
            <reference value="urn:uuid:81609459-290d-4fb8-9966-aabdfd98729f" />
          </entry>
          <entry>
            <reference value="urn:uuid:a465a81c-d7fa-463e-8e70-3acbe2642059" />
          </entry>
          <entry>
            <reference value="urn:uuid:3f0c4e51-dee5-4262-8ef3-145a64f5b719" />
          </entry>
          <entry>
            <reference value="urn:uuid:1866aa96-ff56-4af9-9692-f69661f97d26" />
          </entry>
          <entry>
            <reference value="urn:uuid:90f983eb-59c1-4bb8-9d33-d25c60340278" />
          </entry>
          <entry>
            <reference value="urn:uuid:7be6b950-442d-4d55-9959-65baf18fec52" />
          </entry>
          <entry>
            <reference value="urn:uuid:97502709-f218-4f3d-b405-687628cc4bc0" />
          </entry>
          <entry>
            <reference value="urn:uuid:cd75cd95-aeb1-4a0c-8d43-94062e14752e" />
          </entry>
          <entry>
            <reference value="urn:uuid:24dddf3e-7ff4-43d3-b4c8-0a418a27a5be" />
          </entry>
          <entry>
            <reference value="urn:uuid:7a78a0e6-076c-486d-b4e7-13d7f812ef93" />
          </entry>
          <entry>
            <reference value="urn:uuid:239f822f-c142-4f0f-9566-8245ff53bacc" />
          </entry>
          <entry>
            <reference value="urn:uuid:496c7ce2-0c95-4948-b7b1-03d35518ee5a" />
          </entry>
          <entry>
            <reference value="urn:uuid:1aa74ab2-5d80-49e7-94fb-78665630b300" />
          </entry>
          <entry>
            <reference value="urn:uuid:e8048461-70d2-4eee-a2ce-15436f898347" />
          </entry>
          <entry>
            <reference value="urn:uuid:bd2e67bb-c8ca-462b-adfc-393ff1f27236" />
          </entry>
          <entry>
            <reference value="urn:uuid:850f61a1-54f0-4ff8-88a0-9655aaee40e5" />
          </entry>
          <entry>
            <reference value="urn:uuid:4b8635df-5f55-4110-b479-8099a6be223b" />
          </entry>
          <entry>
            <reference value="urn:uuid:9609c0c7-6648-4a55-9914-73e9f8cf0af5" />
          </entry>
          <entry>
            <reference value="urn:uuid:122694ab-f6d5-44d9-ba4c-fb7a6982f36d" />
          </entry>
          <entry>
            <reference value="urn:uuid:d4e55a97-47e2-4dd2-891a-31f07ecd366e" />
          </entry>
          <entry>
            <reference value="urn:uuid:a1775aef-b047-4edd-ab75-5517a051edeb" />
          </entry>
          <entry>
            <reference value="urn:uuid:c2e487ed-23aa-4e12-9c68-ecbbca8233d0" />
          </entry>
          <entry>
            <reference value="urn:uuid:86e5cdb2-ad5f-4c03-93eb-a612c99e2b89" />
          </entry>
          <entry>
            <reference value="urn:uuid:600b1a1e-5c04-4850-944f-caaf1c01fcd1" />
          </entry>
          <entry>
            <reference value="urn:uuid:33d887ac-d50f-4cb0-a9a5-a2c20c01d4cf" />
          </entry>
          <entry>
            <reference value="urn:uuid:fc8b47a2-4ce8-4498-81ca-16d82309b902" />
          </entry>
          <entry>
            <reference value="urn:uuid:f1c81a5c-0f11-4313-923e-18a92209d488" />
          </entry>
          <entry>
            <reference value="urn:uuid:72438100-5d72-4870-854f-12271d0c4d4c" />
          </entry>
          <entry>
            <reference value="urn:uuid:e53ad795-ec7c-42e9-a1b4-e1b6395962d0" />
          </entry>
          <entry>
            <reference value="urn:uuid:d93af4ad-2b50-495e-bc06-41b31ddb7721" />
          </entry>
          <entry>
            <reference value="urn:uuid:bf7e8bbc-05b2-4f8b-9a52-9c8a0ff98e78" />
          </entry>
        </section>
      </Composition>
    </resource>
  </entry>
  <entry>
    <fullUrl value="urn:uuid:e15965b2-5b15-46e5-9700-14b9cd94df95" />
    <resource>
      <Patient>
        <id value="urn:uuid:e15965b2-5b15-46e5-9700-14b9cd94df95" />
        <meta>
          <profile value="http://hl7.org/fhir/us/vrdr/StructureDefinition/VRDR-Decedent" />
        </meta>
        <extension url="http://hl7.org/fhir/us/core/StructureDefinition/us-core-birthsex">
          <valueCodeableConcept>
            <coding>
              <system value="http://hl7.org/fhir/us/core/ValueSet/us-core-birthsex" />
              <code value="M" />
              <display value="Male" />
            </coding>
          </valueCodeableConcept>
        </extension>
        <extension url="http://hl7.org/fhir/us/core/StructureDefinition/us-core-ethnicity">
          <extension url="ombCategory">
            <valueCoding>
              <system value="urn:oid:2.16.840.1.113883.6.238" />
              <code value="2135-2" />
              <display value="Hispanic or Latino" />
            </valueCoding>
          </extension>
          <extension url="detailed">
            <valueCoding>
              <system value="urn:oid:2.16.840.1.113883.6.238" />
              <code value="2180-8" />
              <display value="Puerto Rican" />
            </valueCoding>
          </extension>
          <extension url="text">
            <valueString value="Hispanic or Latino, Puerto Rican" />
          </extension>
        </extension>
        <extension url="http://hl7.org/fhir/us/core/StructureDefinition/us-core-race">
          <extension url="ombCategory">
            <valueCoding>
              <system value="urn:oid:2.16.840.1.113883.6.238" />
              <code value="2106-3" />
              <display value="White" />
            </valueCoding>
          </extension>
          <extension url="ombCategory">
            <valueCoding>
              <system value="urn:oid:2.16.840.1.113883.6.238" />
              <code value="2076-8" />
              <display value="Native Hawaiian or Other Pacific Islander" />
            </valueCoding>
          </extension>
          <extension url="detailed">
            <valueCoding>
              <system value="urn:oid:2.16.840.1.113883.6.238" />
              <code value="2079-2" />
              <display value="Native Hawaiian" />
            </valueCoding>
          </extension>
          <extension url="text">
            <valueString value="White, Native Hawaiian or Other Pacific Islander, Native Hawaiian" />
          </extension>
        </extension>
        <extension url="http://hl7.org/fhir/StructureDefinition/birthPlace">
          <valueAddress>
            <line value="1011 Example Street" />
            <line value="Line 2" />
            <city value="Bedford" />
            <district value="Middlesex" />
            <state value="Massachusetts" />
            <postalCode value="01730" />
            <country value="United States" />
          </valueAddress>
        </extension>
        <identifier>
          <type>
            <coding>
              <code value="BR" />
              <display value="Social Beneficiary Identifier" />
            </coding>
          </type>
          <system value="http://hl7.org/fhir/sid/us-ssn" />
          <value value="123456789" />
        </identifier>
        <name>
          <use value="official" />
          <family value="Last" />
          <given value="Example" />
          <given value="Something" />
          <given value="Middle" />
          <suffix value="Jr." />
        </name>
        <name>
          <use value="nickname" />
          <family value="LastNameAlias" />
          <given value="FirstNameAlias" />
          <given value="MiddleAlias" />
          <suffix value="Jr." />
        </name>
        <gender value="male" />
        <birthDate value="1940-02-19T16:48:06.4988220-05:00" />
        <address>
          <line value="101 Example Street" />
          <line value="Line 2" />
          <city value="Bedford" />
          <district value="Middlesex" />
          <state value="Massachusetts" />
          <postalCode value="01730" />
          <country value="United States" />
        </address>
        <maritalStatus>
          <coding>
            <system value="http://hl7.org/fhir/v3/MaritalStatus" />
            <code value="S" />
            <display value="Never Married" />
          </coding>
        </maritalStatus>
      </Patient>
    </resource>
  </entry>
  <entry>
    <fullUrl value="urn:uuid:81609459-290d-4fb8-9966-aabdfd98729f" />
    <resource>
      <Practitioner>
        <id value="urn:uuid:81609459-290d-4fb8-9966-aabdfd98729f" />
        <meta>
          <profile value="http://hl7.org/fhir/us/vrdr/StructureDefinition/VRDR-Certifier" />
        </meta>
        <name>
          <use value="official" />
          <family value="Last" />
          <given value="Doctor" />
          <given value="Middle" />
          <suffix value="Jr." />
        </name>
        <address>
          <line value="11 Example Street" />
          <line value="Line 2" />
          <city value="Bedford" />
          <district value="Middlesex" />
          <state value="Massachusetts" />
          <postalCode value="01730" />
          <country value="United States" />
        </address>
        <qualification>
          <identifier>
            <value value="789123456" />
          </identifier>
          <code>
            <coding>
              <system value="http://hl7.org/fhir/v2/0360/2.7" />
              <code value="MD" />
              <display value="Doctor of Medicine" />
            </coding>
          </code>
        </qualification>
      </Practitioner>
    </resource>
  </entry>
  <entry>
    <fullUrl value="urn:uuid:a465a81c-d7fa-463e-8e70-3acbe2642059" />
    <resource>
      <Practitioner>
        <id value="urn:uuid:a465a81c-d7fa-463e-8e70-3acbe2642059" />
        <meta>
          <profile value="http://hl7.org/fhir/us/vrdr/StructureDefinition/VRDR-Mortician" />
        </meta>
        <name>
          <use value="official" />
          <family value="Last" />
          <given value="FD" />
          <given value="Middle" />
          <suffix value="Jr." />
        </name>
        <qualification>
          <identifier>
            <value value="9876543210" />
          </identifier>
        </qualification>
      </Practitioner>
    </resource>
  </entry>
  <entry>
    <fullUrl value="urn:uuid:3f0c4e51-dee5-4262-8ef3-145a64f5b719" />
    <resource>
      <Procedure>
        <id value="urn:uuid:3f0c4e51-dee5-4262-8ef3-145a64f5b719" />
        <meta>
          <profile value="http://hl7.org/fhir/us/vrdr/StructureDefinition/VRDR-Death-Certification" />
        </meta>
        <status value="completed" />
        <category>
          <coding>
            <system value="http://snomed.info/sct" />
            <code value="103693007" />
            <display value="Diagnostic procedure" />
          </coding>
        </category>
        <code>
          <coding>
            <system value="http://snomed.info/sct" />
            <code value="308646001" />
            <display value="Death certification" />
          </coding>
        </code>
        <performedDateTime value="2019-01-29T16:48:06.4988220-05:00" />
        <performer>
          <role>
            <coding>
              <system value="http://snomed.info/sct" />
              <code value="309343006" />
              <display value="Physician" />
            </coding>
          </role>
          <actor>
            <reference value="urn:uuid:81609459-290d-4fb8-9966-aabdfd98729f" />
          </actor>
        </performer>
      </Procedure>
    </resource>
  </entry>
  <entry>
    <fullUrl value="urn:uuid:1866aa96-ff56-4af9-9692-f69661f97d26" />
    <resource>
      <Organization>
        <id value="urn:uuid:1866aa96-ff56-4af9-9692-f69661f97d26" />
        <meta>
          <profile value="http://hl7.org/fhir/us/vrdr/StructureDefinition/VRDR-Interested-Party" />
        </meta>
        <identifier>
          <value value="1010101" />
        </identifier>
        <active value="true" />
        <type>
          <coding>
            <system value="http://terminology.hl7.org/CodeSystem/organization-type" />
            <code value="prov" />
            <display value="Healthcare Provider" />
          </coding>
        </type>
        <name value="Example Hospital" />
        <address>
          <line value="10 Example Street" />
          <line value="Line 2" />
          <city value="Bedford" />
          <district value="Middlesex" />
          <state value="Massachusetts" />
          <postalCode value="01730" />
          <country value="United States" />
        </address>
      </Organization>
    </resource>
  </entry>
  <entry>
    <fullUrl value="urn:uuid:90f983eb-59c1-4bb8-9d33-d25c60340278" />
    <resource>
      <Organization>
        <id value="urn:uuid:90f983eb-59c1-4bb8-9d33-d25c60340278" />
        <meta>
          <profile value="http://hl7.org/fhir/us/vrdr/StructureDefinition/VRDR-Funeral-Home" />
        </meta>
        <type>
          <coding>
            <code value="bus" />
            <display value="Non-Healthcare Business or Corporation" />
          </coding>
        </type>
        <name value="Smith Funeral Home" />
        <address>
          <line value="1011010 Example Street" />
          <line value="Line 2" />
          <city value="Bedford" />
          <district value="Middlesex" />
          <state value="Massachusetts" />
          <postalCode value="01730" />
          <country value="United States" />
        </address>
      </Organization>
    </resource>
  </entry>
  <entry>
    <fullUrl value="urn:uuid:7be6b950-442d-4d55-9959-65baf18fec52" />
    <resource>
      <PractitionerRole>
        <id value="urn:uuid:7be6b950-442d-4d55-9959-65baf18fec52" />
        <meta>
          <profile value="http://hl7.org/fhir/us/vrdr/StructureDefinition/VRDR-Funeral-Home-Director" />
        </meta>
        <practitioner>
          <reference value="urn:uuid:a465a81c-d7fa-463e-8e70-3acbe2642059" />
        </practitioner>
        <organization>
          <reference value="urn:uuid:90f983eb-59c1-4bb8-9d33-d25c60340278" />
        </organization>
      </PractitionerRole>
    </resource>
  </entry>
  <entry>
    <fullUrl value="urn:uuid:97502709-f218-4f3d-b405-687628cc4bc0" />
    <resource>
      <List>
        <id value="urn:uuid:97502709-f218-4f3d-b405-687628cc4bc0" />
        <meta>
          <profile value="http://hl7.org/fhir/us/vrdr/StructureDefinition/VRDR-Cause-of-Death-Pathway" />
        </meta>
        <status value="current" />
        <mode value="snapshot" />
        <source>
          <reference value="urn:uuid:81609459-290d-4fb8-9966-aabdfd98729f" />
        </source>
        <orderedBy>
          <coding>
            <code value="priority" />
          </coding>
        </orderedBy>
        <entry>
          <item>
            <reference value="urn:uuid:239f822f-c142-4f0f-9566-8245ff53bacc" />
          </item>
        </entry>
        <entry>
          <item>
            <reference value="urn:uuid:496c7ce2-0c95-4948-b7b1-03d35518ee5a" />
          </item>
        </entry>
        <entry>
          <item>
            <reference value="urn:uuid:1aa74ab2-5d80-49e7-94fb-78665630b300" />
          </item>
        </entry>
        <entry>
          <item>
            <reference value="urn:uuid:e8048461-70d2-4eee-a2ce-15436f898347" />
          </item>
        </entry>
      </List>
    </resource>
  </entry>
  <entry>
    <fullUrl value="urn:uuid:cd75cd95-aeb1-4a0c-8d43-94062e14752e" />
    <resource>
      <Location>
        <id value="urn:uuid:cd75cd95-aeb1-4a0c-8d43-94062e14752e" />
        <meta>
          <profile value="http://hl7.org/fhir/us/vrdr/StructureDefinition/VRDR-Disposition-Location" />
        </meta>
        <name value="Bedford Cemetery" />
        <address>
          <line value="603 Example Street" />
          <line value="Line 2" />
          <city value="Bedford" />
          <district value="Middlesex" />
          <state value="Massachusetts" />
          <postalCode value="01730" />
          <country value="United States" />
        </address>
      </Location>
    </resource>
  </entry>
  <entry>
    <fullUrl value="urn:uuid:24dddf3e-7ff4-43d3-b4c8-0a418a27a5be" />
    <resource>
      <Observation>
        <id value="urn:uuid:24dddf3e-7ff4-43d3-b4c8-0a418a27a5be" />
        <meta>
          <profile value="http://hl7.org/fhir/us/vrdr/StructureDefinition/VRDR-Manner-of-Death" />
        </meta>
        <status value="final" />
        <code>
          <coding>
            <system value="http://loinc.org" />
            <code value="69449-7" />
            <display value="Manner of death" />
          </coding>
        </code>
        <subject>
          <reference value="urn:uuid:e15965b2-5b15-46e5-9700-14b9cd94df95" />
        </subject>
        <performer>
          <reference value="urn:uuid:81609459-290d-4fb8-9966-aabdfd98729f" />
        </performer>
        <valueCodeableConcept>
          <coding>
            <code value="7878000" />
            <display value="Accident" />
          </coding>
        </valueCodeableConcept>
      </Observation>
    </resource>
  </entry>
  <entry>
    <fullUrl value="urn:uuid:7a78a0e6-076c-486d-b4e7-13d7f812ef93" />
    <resource>
      <Condition>
        <id value="urn:uuid:7a78a0e6-076c-486d-b4e7-13d7f812ef93" />
        <meta>
          <profile value="http://hl7.org/fhir/us/vrdr/StructureDefinition/VRDR-Condition-Contributing-To-Death" />
        </meta>
        <code>
          <text value="Example Contributing Conditions" />
        </code>
        <subject>
          <reference value="urn:uuid:e15965b2-5b15-46e5-9700-14b9cd94df95" />
        </subject>
      </Condition>
    </resource>
  </entry>
  <entry>
    <fullUrl value="urn:uuid:239f822f-c142-4f0f-9566-8245ff53bacc" />
    <resource>
      <Condition>
        <id value="urn:uuid:239f822f-c142-4f0f-9566-8245ff53bacc" />
        <meta>
          <profile value="http://hl7.org/fhir/us/vrdr/StructureDefinition/VRDR-Cause-Of-Death-Condition" />
        </meta>
        <code>
          <coding>
            <system value="http://hl7.org/fhir/sid/icd-10" />
            <code value="I21.0" />
            <display value="Acute transmural myocardial infarction of anterior wall" />
          </coding>
          <text value="Rupture of myocardium" />
        </code>
        <subject>
          <reference value="urn:uuid:e15965b2-5b15-46e5-9700-14b9cd94df95" />
        </subject>
        <onsetString value="minutes" />
        <asserter>
          <reference value="urn:uuid:81609459-290d-4fb8-9966-aabdfd98729f" />
        </asserter>
      </Condition>
    </resource>
  </entry>
  <entry>
    <fullUrl value="urn:uuid:496c7ce2-0c95-4948-b7b1-03d35518ee5a" />
    <resource>
      <Condition>
        <id value="urn:uuid:496c7ce2-0c95-4948-b7b1-03d35518ee5a" />
        <meta>
          <profile value="http://hl7.org/fhir/us/vrdr/StructureDefinition/VRDR-Cause-Of-Death-Condition" />
        </meta>
        <code>
          <coding>
            <system value="http://hl7.org/fhir/sid/icd-10" />
            <code value="I21.9" />
            <display value="Acute myocardial infarction, unspecified" />
          </coding>
          <text value="Acute myocardial infarction" />
        </code>
        <subject>
          <reference value="urn:uuid:e15965b2-5b15-46e5-9700-14b9cd94df95" />
        </subject>
        <onsetString value="6 days" />
        <asserter>
          <reference value="urn:uuid:81609459-290d-4fb8-9966-aabdfd98729f" />
        </asserter>
      </Condition>
    </resource>
  </entry>
  <entry>
    <fullUrl value="urn:uuid:1aa74ab2-5d80-49e7-94fb-78665630b300" />
    <resource>
      <Condition>
        <id value="urn:uuid:1aa74ab2-5d80-49e7-94fb-78665630b300" />
        <meta>
          <profile value="http://hl7.org/fhir/us/vrdr/StructureDefinition/VRDR-Cause-Of-Death-Condition" />
        </meta>
        <code>
          <text value="Coronary artery thrombosis" />
        </code>
        <subject>
          <reference value="urn:uuid:e15965b2-5b15-46e5-9700-14b9cd94df95" />
        </subject>
        <onsetString value="5 years" />
        <asserter>
          <reference value="urn:uuid:81609459-290d-4fb8-9966-aabdfd98729f" />
        </asserter>
      </Condition>
    </resource>
  </entry>
  <entry>
    <fullUrl value="urn:uuid:e8048461-70d2-4eee-a2ce-15436f898347" />
    <resource>
      <Condition>
        <id value="urn:uuid:e8048461-70d2-4eee-a2ce-15436f898347" />
        <meta>
          <profile value="http://hl7.org/fhir/us/vrdr/StructureDefinition/VRDR-Cause-Of-Death-Condition" />
        </meta>
        <code>
          <text value="Atherosclerotic coronary artery disease" />
        </code>
        <subject>
          <reference value="urn:uuid:e15965b2-5b15-46e5-9700-14b9cd94df95" />
        </subject>
        <onsetString value="7 years" />
        <asserter>
          <reference value="urn:uuid:81609459-290d-4fb8-9966-aabdfd98729f" />
        </asserter>
      </Condition>
    </resource>
  </entry>
  <entry>
    <fullUrl value="urn:uuid:bd2e67bb-c8ca-462b-adfc-393ff1f27236" />
    <resource>
      <RelatedPerson>
        <id value="urn:uuid:bd2e67bb-c8ca-462b-adfc-393ff1f27236" />
        <meta>
          <profile value="http://hl7.org/fhir/us/vrdr/StructureDefinition/VRDR-Decedent-Father" />
        </meta>
        <patient>
          <reference value="urn:uuid:e15965b2-5b15-46e5-9700-14b9cd94df95" />
        </patient>
        <relationship>
          <coding>
            <code value="FTH" />
          </coding>
        </relationship>
        <name>
          <family value="Last" />
          <given value="Father" />
          <given value="Middle" />
          <suffix value="Sr." />
        </name>
      </RelatedPerson>
    </resource>
  </entry>
  <entry>
    <fullUrl value="urn:uuid:850f61a1-54f0-4ff8-88a0-9655aaee40e5" />
    <resource>
      <RelatedPerson>
        <id value="urn:uuid:850f61a1-54f0-4ff8-88a0-9655aaee40e5" />
        <meta>
          <profile value="http://hl7.org/fhir/us/vrdr/StructureDefinition/VRDR-Decedent-Mother" />
        </meta>
        <patient>
          <reference value="urn:uuid:e15965b2-5b15-46e5-9700-14b9cd94df95" />
        </patient>
        <relationship>
          <coding>
            <code value="MTH" />
          </coding>
        </relationship>
        <name>
          <family value="Maiden" />
          <given value="Mother" />
          <given value="Middle" />
          <suffix value="Dr." />
        </name>
      </RelatedPerson>
    </resource>
  </entry>
  <entry>
    <fullUrl value="urn:uuid:4b8635df-5f55-4110-b479-8099a6be223b" />
    <resource>
      <RelatedPerson>
        <id value="urn:uuid:4b8635df-5f55-4110-b479-8099a6be223b" />
        <meta>
          <profile value="http://hl7.org/fhir/us/vrdr/StructureDefinition/VRDR-Decedent-Spouse" />
        </meta>
        <patient>
          <reference value="urn:uuid:e15965b2-5b15-46e5-9700-14b9cd94df95" />
        </patient>
        <relationship>
          <coding>
            <code value="SPS" />
          </coding>
        </relationship>
        <name>
          <family value="Last" />
          <given value="Spouse" />
          <given value="Middle" />
          <suffix value="Ph.D." />
        </name>
      </RelatedPerson>
    </resource>
  </entry>
  <entry>
    <fullUrl value="urn:uuid:9609c0c7-6648-4a55-9914-73e9f8cf0af5" />
    <resource>
      <Observation>
        <id value="urn:uuid:9609c0c7-6648-4a55-9914-73e9f8cf0af5" />
        <meta>
          <profile value="http://hl7.org/fhir/us/vrdr/StructureDefinition/VRDR-Decedent-Education-Level" />
        </meta>
        <status value="final" />
        <code>
          <coding>
            <system value="http://loinc.org" />
            <code value="80913-7" />
            <display value="Highest level of education" />
          </coding>
        </code>
        <subject>
          <reference value="urn:uuid:e15965b2-5b15-46e5-9700-14b9cd94df95" />
        </subject>
        <valueCodeableConcept>
          <coding>
            <system value="http://hl7.org/fhir/v3/EducationLevel" />
            <code value="BD" />
            <display value="College or baccalaureate degree complete" />
          </coding>
        </valueCodeableConcept>
      </Observation>
    </resource>
  </entry>
  <entry>
    <fullUrl value="urn:uuid:122694ab-f6d5-44d9-ba4c-fb7a6982f36d" />
    <resource>
      <Observation>
        <id value="urn:uuid:122694ab-f6d5-44d9-ba4c-fb7a6982f36d" />
        <meta>
          <profile value="http://hl7.org/fhir/us/vrdr/StructureDefinition/VRDR-Birth-Record-Identifier" />
        </meta>
        <status value="final" />
        <code>
          <coding>
            <code value="BR" />
          </coding>
        </code>
        <subject>
          <reference value="urn:uuid:e15965b2-5b15-46e5-9700-14b9cd94df95" />
        </subject>
        <valueString value="4242123" />
      </Observation>
    </resource>
  </entry>
  <entry>
    <fullUrl value="urn:uuid:d4e55a97-47e2-4dd2-891a-31f07ecd366e" />
    <resource>
      <Observation>
        <id value="urn:uuid:d4e55a97-47e2-4dd2-891a-31f07ecd366e" />
        <meta>
          <profile value="http://hl7.org/fhir/us/vrdr/StructureDefinition/VRDR-Decedent-Employment-History" />
        </meta>
        <status value="final" />
        <code>
          <coding>
            <system value="http://loinc.org" />
            <code value="74165-2" />
            <display value="History of employment status" />
          </coding>
        </code>
        <subject>
          <reference value="urn:uuid:e15965b2-5b15-46e5-9700-14b9cd94df95" />
        </subject>
        <component>
          <code>
            <coding>
              <system value="http://loinc.org" />
              <code value="21847-9" />
              <display value="Usual occupation" />
            </coding>
          </code>
          <valueCodeableConcept>
            <coding>
              <system value="http://hl7.org/fhir/ValueSet/occupation-cdc-census-2010" />
              <code value="1340" />
              <display value="Biomedical engineers" />
            </coding>
          </valueCodeableConcept>
        </component>
        <component>
          <code>
            <coding>
              <system value="http://loinc.org" />
              <code value="21844-6" />
              <display value="Usual industry" />
            </coding>
          </code>
          <valueCodeableConcept>
            <coding>
              <system value="http://hl7.org/fhir/ValueSet/industry-cdc-census-2010" />
              <code value="7280" />
              <display value="Accounting, tax preparation, bookkeeping, and payroll services" />
            </coding>
          </valueCodeableConcept>
        </component>
        <component>
          <code>
            <coding>
              <system value="http://loinc.org" />
              <code value="55280-2" />
              <display value="Military service" />
            </coding>
          </code>
          <valueCodeableConcept>
            <coding>
              <system value="http://hl7.org/fhir/ValueSet/v2-0532" />
              <code value="Y" />
              <display value="Yes" />
            </coding>
          </valueCodeableConcept>
        </component>
      </Observation>
    </resource>
  </entry>
  <entry>
    <fullUrl value="urn:uuid:a1775aef-b047-4edd-ab75-5517a051edeb" />
    <resource>
      <Observation>
        <id value="urn:uuid:a1775aef-b047-4edd-ab75-5517a051edeb" />
        <meta>
          <profile value="http://hl7.org/fhir/us/vrdr/StructureDefinition/VRDR-Decedent-Disposition-Method" />
        </meta>
        <extension url="http://hl7.org/fhir/us/vrdr/StructureDefinition/VRDR-Disposition-Location">
          <valueReference>
            <reference value="urn:uuid:cd75cd95-aeb1-4a0c-8d43-94062e14752e" />
          </valueReference>
        </extension>
        <status value="final" />
        <code>
          <coding>
            <system value="http://loinc.org" />
            <code value="80905-3" />
            <display value="Body disposition method" />
          </coding>
        </code>
        <subject>
          <reference value="urn:uuid:e15965b2-5b15-46e5-9700-14b9cd94df95" />
        </subject>
        <performer>
          <reference value="urn:uuid:a465a81c-d7fa-463e-8e70-3acbe2642059" />
        </performer>
        <valueCodeableConcept>
          <coding>
            <system value="http://snomed.info/sct" />
            <code value="449971000124106" />
            <display value="Burial" />
          </coding>
        </valueCodeableConcept>
      </Observation>
    </resource>
  </entry>
  <entry>
    <fullUrl value="urn:uuid:c2e487ed-23aa-4e12-9c68-ecbbca8233d0" />
    <resource>
      <Observation>
        <id value="urn:uuid:c2e487ed-23aa-4e12-9c68-ecbbca8233d0" />
        <meta>
          <profile value="http://hl7.org/fhir/us/vrdr/StructureDefinition/VRDR-Autopsy-Performed-Indicator" />
        </meta>
        <status value="final" />
        <code>
          <coding>
            <system value="http://loinc.org" />
            <code value="85699-7" />
            <display value="Autopsy was performed" />
          </coding>
        </code>
        <subject>
          <reference value="urn:uuid:e15965b2-5b15-46e5-9700-14b9cd94df95" />
        </subject>
        <valueCodeableConcept>
          <coding>
            <system value="http://hl7.org/fhir/ValueSet/v2-0532" />
            <code value="Y" />
            <display value="Yes" />
          </coding>
        </valueCodeableConcept>
        <component>
          <code>
            <coding>
              <system value="http://loinc.org" />
              <code value="69436-4" />
              <display value="Autopsy results available" />
            </coding>
          </code>
          <valueCodeableConcept>
            <coding>
              <system value="http://hl7.org/fhir/ValueSet/v2-0532" />
              <code value="Y" />
              <display value="Yes" />
            </coding>
          </valueCodeableConcept>
        </component>
      </Observation>
    </resource>
  </entry>
  <entry>
    <fullUrl value="urn:uuid:86e5cdb2-ad5f-4c03-93eb-a612c99e2b89" />
    <resource>
      <Observation>
        <id value="urn:uuid:86e5cdb2-ad5f-4c03-93eb-a612c99e2b89" />
        <meta>
          <profile value="http://hl7.org/fhir/us/vrdr/StructureDefinition/VRDR-Decedent-Age" />
        </meta>
        <status value="final" />
        <code>
          <coding>
            <system value="http://loinc.org" />
            <code value="30525-0" />
            <display value="Age" />
          </coding>
        </code>
        <subject>
          <reference value="urn:uuid:e15965b2-5b15-46e5-9700-14b9cd94df95" />
        </subject>
        <valueQuantity>
          <value value="79" />
          <unit value="a" />
        </valueQuantity>
      </Observation>
    </resource>
  </entry>
  <entry>
    <fullUrl value="urn:uuid:600b1a1e-5c04-4850-944f-caaf1c01fcd1" />
    <resource>
      <Observation>
        <id value="urn:uuid:600b1a1e-5c04-4850-944f-caaf1c01fcd1" />
        <meta>
          <profile value="http://hl7.org/fhir/us/vrdr/StructureDefinition/VRDR-Decedent-Pregnancy" />
        </meta>
        <status value="final" />
        <code>
          <coding>
            <system value="http://loinc.org" />
            <code value="69442-2" />
            <display value="Timing of recent pregnancy in relation to death" />
          </coding>
        </code>
        <subject>
          <reference value="urn:uuid:e15965b2-5b15-46e5-9700-14b9cd94df95" />
        </subject>
        <valueCodeableConcept>
          <coding>
            <system value="http://hl7.org/fhir/stu3/valueset-PregnancyStatusVS" />
            <code value="NA" />
            <display value="not applicable" />
          </coding>
        </valueCodeableConcept>
      </Observation>
    </resource>
  </entry>
  <entry>
    <fullUrl value="urn:uuid:33d887ac-d50f-4cb0-a9a5-a2c20c01d4cf" />
    <resource>
      <Observation>
        <id value="urn:uuid:33d887ac-d50f-4cb0-a9a5-a2c20c01d4cf" />
        <meta>
          <profile value="http://hl7.org/fhir/us/vrdr/StructureDefinition/VRDR-Decedent-Transportation-Role" />
        </meta>
        <status value="final" />
        <code>
          <coding>
            <system value="http://loinc.org" />
            <code value="69451-3" />
            <display value="Transportation role of decedent" />
          </coding>
        </code>
        <subject>
          <reference value="urn:uuid:e15965b2-5b15-46e5-9700-14b9cd94df95" />
        </subject>
        <valueCodeableConcept>
          <coding>
            <system value="http://hl7.org/fhir/stu3/valueset-TransportationRelationships" />
            <code value="example-code" />
            <display value="Example Code" />
          </coding>
        </valueCodeableConcept>
      </Observation>
    </resource>
  </entry>
  <entry>
    <fullUrl value="urn:uuid:fc8b47a2-4ce8-4498-81ca-16d82309b902" />
    <resource>
      <Observation>
        <id value="urn:uuid:fc8b47a2-4ce8-4498-81ca-16d82309b902" />
        <meta>
          <profile value="http://hl7.org/fhir/us/vrdr/StructureDefinition/VRDR-Examiner-Contacted" />
        </meta>
        <status value="final" />
        <code>
          <coding>
            <system value="http://loinc.org" />
            <code value="74497-9" />
            <display value="Medical examiner or coroner was contacted" />
          </coding>
        </code>
        <subject>
          <reference value="urn:uuid:e15965b2-5b15-46e5-9700-14b9cd94df95" />
        </subject>
        <valueBoolean value="false" />
      </Observation>
    </resource>
  </entry>
  <entry>
    <fullUrl value="urn:uuid:f1c81a5c-0f11-4313-923e-18a92209d488" />
    <resource>
      <Observation>
        <id value="urn:uuid:f1c81a5c-0f11-4313-923e-18a92209d488" />
        <meta>
          <profile value="http://hl7.org/fhir/us/vrdr/StructureDefinition/VRDR-Tobacco-Use-Contributed-To-Death" />
        </meta>
        <status value="final" />
        <code>
          <coding>
            <system value="http://loinc.org" />
            <code value="69443-0" />
            <display value="Did tobacco use contribute to death" />
          </coding>
        </code>
        <subject>
          <reference value="urn:uuid:e15965b2-5b15-46e5-9700-14b9cd94df95" />
        </subject>
        <valueCodeableConcept>
          <coding>
            <system value="http://hl7.org/fhir/ValueSet/v2-0532" />
            <code value="Y" />
            <display value="Yes" />
          </coding>
        </valueCodeableConcept>
      </Observation>
    </resource>
  </entry>
  <entry>
    <fullUrl value="urn:uuid:72438100-5d72-4870-854f-12271d0c4d4c" />
    <resource>
      <Location>
        <id value="urn:uuid:72438100-5d72-4870-854f-12271d0c4d4c" />
        <meta>
          <profile value="http://hl7.org/fhir/us/vrdr/StructureDefinition/VRDR-Injury-Location" />
        </meta>
        <name value="Example Injury Location Name" />
        <description value="Example Injury Location Description" />
        <address>
          <line value="781 Example Street" />
          <line value="Line 2" />
          <city value="Bedford" />
          <district value="Middlesex" />
          <state value="Massachusetts" />
          <postalCode value="01730" />
          <country value="United States" />
        </address>
      </Location>
    </resource>
  </entry>
  <entry>
    <fullUrl value="urn:uuid:e53ad795-ec7c-42e9-a1b4-e1b6395962d0" />
    <resource>
      <Observation>
        <id value="urn:uuid:e53ad795-ec7c-42e9-a1b4-e1b6395962d0" />
        <meta>
          <profile value="http://hl7.org/fhir/us/vrdr/StructureDefinition/VRDR-Injury-Incident" />
        </meta>
        <status value="final" />
        <code>
          <coding>
            <system value="http://loinc.org" />
            <code value="11374-6" />
            <display value="Injury incident description" />
          </coding>
        </code>
        <subject>
          <reference value="urn:uuid:e15965b2-5b15-46e5-9700-14b9cd94df95" />
        </subject>
        <effectiveDateTime value="2018-02-19T16:48:06.4988220-05:00" />
      </Observation>
    </resource>
  </entry>
  <entry>
    <fullUrl value="urn:uuid:d93af4ad-2b50-495e-bc06-41b31ddb7721" />
    <resource>
      <Location>
        <id value="urn:uuid:d93af4ad-2b50-495e-bc06-41b31ddb7721" />
        <meta>
          <profile value="http://hl7.org/fhir/us/vrdr/StructureDefinition/VRDR-Death-Location" />
        </meta>
        <name value="Example Death Location Name" />
        <description value="Example Death Location Description" />
        <address>
          <line value="671 Example Street" />
          <line value="Line 2" />
          <city value="Bedford" />
          <district value="Middlesex" />
          <state value="Massachusetts" />
          <postalCode value="01730" />
          <country value="United States" />
        </address>
      </Location>
    </resource>
  </entry>
  <entry>
    <fullUrl value="urn:uuid:bf7e8bbc-05b2-4f8b-9a52-9c8a0ff98e78" />
    <resource>
      <Observation>
        <id value="urn:uuid:bf7e8bbc-05b2-4f8b-9a52-9c8a0ff98e78" />
        <meta>
          <profile value="http://hl7.org/fhir/us/vrdr/StructureDefinition/VRDR-Death-Date" />
        </meta>
        <status value="final" />
        <code>
          <coding>
            <system value="http://loinc.org" />
            <code value="81956-5" />
            <display value="Date and time of death" />
          </coding>
        </code>
        <subject>
          <reference value="urn:uuid:e15965b2-5b15-46e5-9700-14b9cd94df95" />
        </subject>
        <effectiveDateTime value="2018-02-19T16:48:06.4988220-05:00" />
        <performer>
          <reference value="urn:uuid:81609459-290d-4fb8-9966-aabdfd98729f" />
        </performer>
        <component>
          <code>
            <coding>
              <system value="http://loinc.org" />
              <code value="80616-6" />
              <display value="Date and time pronounced dead" />
            </coding>
          </code>
          <valueDateTime value="2018-02-20T16:48:06.4988220-05:00" />
        </component>
      </Observation>
    </resource>
  </entry>
</Bundle>


