{
  "resourceType": "Bundle",
  "id": "urn:uuid:3c8a7735-34d0-4ec4-a31d-941961ab8013",
  "meta": {
    "profile": [
      "http://www.hl7.org/fhir/us/vrdr/StructureDefinition/VRDR-Death-Certificate-Document"
    ]
  },
  "identifier": {
    "value": "42"
  },
  "type": "document",
  "entry": [
    {
      "fullUrl": "urn:uuid:f54d60d0-8846-4f99-9e52-bf0e5bf0a881",
      "resource": {
        "resourceType": "Composition",
        "id": "urn:uuid:f54d60d0-8846-4f99-9e52-bf0e5bf0a881",
        "meta": {
          "profile": [
            "http://www.hl7.org/fhir/us/vrdr/StructureDefinition/VRDR-Death-Certificate"
          ]
        },
        "identifier": {
          "value": "1"
        },
        "status": "final",
        "type": {
          "coding": [
            {
              "system": "http://loinc.org",
              "code": "64297-5",
              "display": "Death certificate"
            }
          ]
        },
        "subject": {
          "reference": "urn:uuid:c1721070-a78d-4abd-974a-b083ca9f35ca"
        },
        "date": "2019-01-20T16:47:04.498822-05:00",
        "attester": [
          {
            "mode": [
              "legal"
            ],
            "time": "2019-01-29T16:48:06.498822-05:00",
            "party": {
              "reference": "urn:uuid:fb60ae20-0074-4edf-83c0-0732ff6ef141"
            }
          }
        ],
        "event": [
          {
            "code": [
              {
                "coding": [
                  {
                    "system": "http://snomed.info/sct",
                    "code": "103693007",
                    "display": "Diagnostic procedure"
                  }
                ]
              }
            ],
            "detail": [
              {
                "reference": "urn:uuid:d78430ea-36ac-4a00-9cb4-eb177c10613f"
              }
            ]
          }
        ],
        "section": [
          {
            "entry": [
              {
                "reference": "urn:uuid:c1721070-a78d-4abd-974a-b083ca9f35ca"
              },
              {
                "reference": "urn:uuid:fb60ae20-0074-4edf-83c0-0732ff6ef141"
              },
              {
                "reference": "urn:uuid:1a7877f4-988c-47f6-9ad9-e6e65f67dde2"
              },
              {
                "reference": "urn:uuid:d78430ea-36ac-4a00-9cb4-eb177c10613f"
              },
              {
                "reference": "urn:uuid:2746f741-41ec-4358-9f79-538e5ef6731a"
              },
              {
                "reference": "urn:uuid:56ca40d2-412e-410d-bef2-e0ed0263e6d5"
              },
              {
                "reference": "urn:uuid:6d8dbf2f-df1d-458d-ad8f-016a71c916c3"
              },
              {
                "reference": "urn:uuid:43296ff0-9208-4f76-93a9-91f4f2292ce5"
              },
              {
                "reference": "urn:uuid:9bf3b560-d659-45f4-8a09-505ad0ec20df"
              },
              {
                "reference": "urn:uuid:a2de17f6-0281-48e5-8b5d-b9fd6e7ba07e"
              },
              {
                "reference": "urn:uuid:872c52a4-0064-4360-87f5-5cf33da5686e"
              },
              {
                "reference": "urn:uuid:9e818d52-f227-43e4-8adc-7b4bfd27e7f0"
              },
              {
                "reference": "urn:uuid:c08de6a4-b033-4a20-a816-65de0f0f1690"
              },
              {
                "reference": "urn:uuid:1f853753-5f87-49d0-ba76-70b069d1b791"
              },
              {
                "reference": "urn:uuid:819bdaf8-783f-421e-8b3e-47475af18e4e"
              },
              {
                "reference": "urn:uuid:9c055c8c-2d2f-4746-82af-20177d708fd1"
              },
              {
                "reference": "urn:uuid:2f3a5f58-6bad-4f3b-b9d3-89936cdbe104"
              },
              {
                "reference": "urn:uuid:e7dab674-4334-452a-89d3-5bd76bbd52a7"
              },
              {
                "reference": "urn:uuid:c5b7153d-f903-4ecd-b5fe-451c5aa2a58d"
              },
              {
                "reference": "urn:uuid:207a0fa5-3845-4878-8995-1cf39fabb596"
              },
              {
                "reference": "urn:uuid:6ea1b997-c60e-446c-9469-600a5f124d47"
              },
              {
                "reference": "urn:uuid:5bdf1669-9f59-4fc5-9ea7-56c919d73d4e"
              },
              {
                "reference": "urn:uuid:5456e711-6847-4b85-bb5a-aad70c9c5735"
              },
              {
                "reference": "urn:uuid:771c6b64-b017-4f19-b1d3-80e51ec70a31"
              },
              {
                "reference": "urn:uuid:54a057f0-a4c9-4257-89a4-0eafff07cec5"
              },
              {
                "reference": "urn:uuid:5c49f5b0-1b01-4b37-9c9f-5f4d4224a8d6"
              },
              {
                "reference": "urn:uuid:de388294-7d63-4e9f-9a27-08ef5342cee1"
              },
              {
                "reference": "urn:uuid:cfead8cb-5125-4dba-8fe0-6a45434a8e50"
              },
              {
                "reference": "urn:uuid:610a1a5d-b4f9-4a26-92c4-da58767b65de"
              },
              {
                "reference": "urn:uuid:3926a1a5-e41e-4a22-99ab-3639740c931d"
              },
              {
                "reference": "urn:uuid:d1586aec-9f21-4a21-b369-8f3bcd1e8c55"
              },
              {
                "reference": "urn:uuid:618cf470-fc32-4bd4-8a7c-72f55c51a865"
              }
            ]
          }
        ]
      }
    },
    {
      "fullUrl": "urn:uuid:c1721070-a78d-4abd-974a-b083ca9f35ca",
      "resource": {
        "resourceType": "Patient",
        "id": "urn:uuid:c1721070-a78d-4abd-974a-b083ca9f35ca",
        "meta": {
          "profile": [
            "http://www.hl7.org/fhir/us/vrdr/StructureDefinition/VRDR-Decedent"
          ]
        },
        "extension": [
          {
            "url": "http://hl7.org/fhir/us/core/StructureDefinition/us-core-birthsex",
            "valueCodeableConcept": {
              "coding": [
                {
                  "system": "http://hl7.org/fhir/us/core/ValueSet/us-core-birthsex",
                  "code": "M",
                  "display": "Male"
                }
              ]
            }
          },
          {
            "extension": [
              {
                "url": "text",
                "valueString": "Hispanic or Latino"
              },
              {
                "url": "ombCategory",
                "valueCoding": {
                  "system": "urn:oid:2.16.840.1.113883.6.238",
                  "code": "2135-2",
                  "display": "Hispanic or Latino"
                }
              },
              {
                "url": "text",
                "valueString": "Puerto Rican"
              },
              {
                "url": "detailed",
                "valueCoding": {
                  "system": "urn:oid:2.16.840.1.113883.6.238",
                  "code": "2180-8",
                  "display": "Puerto Rican"
                }
              }
            ],
            "url": "http://hl7.org/fhir/us/core/StructureDefinition/us-core-ethnicity"
          },
          {
            "extension": [
              {
                "url": "text",
                "valueString": "White"
              },
              {
                "url": "ombCategory",
                "valueCoding": {
                  "system": "urn:oid:2.16.840.1.113883.6.238",
                  "code": "2106-3",
                  "display": "White"
                }
              },
              {
                "url": "text",
                "valueString": "Native Hawaiian or Other Pacific Islander"
              },
              {
                "url": "ombCategory",
                "valueCoding": {
                  "system": "urn:oid:2.16.840.1.113883.6.238",
                  "code": "2076-8",
                  "display": "Native Hawaiian or Other Pacific Islander"
                }
              }
            ],
            "url": "http://hl7.org/fhir/us/core/StructureDefinition/us-core-race"
          },
          {
            "url": "http://www.hl7.org/fhir/StructureDefinition/birthPlace",
            "valueAddress": {
              "line": [
                "1011 Example Street",
                "Line 2"
              ],
              "city": "Bedford",
              "district": "Middlesex",
              "state": "Massachusetts",
              "postalCode": "01730",
              "country": "United States"
            }
          }
        ],
        "identifier": [
          {
            "type": {
              "coding": [
                {
                  "code": "BR",
                  "display": "Social Beneficiary Identifier"
                }
              ]
            },
            "system": "http://hl7.org/fhir/sid/us-ssn",
            "value": "123456789"
          }
        ],
        "name": [
          {
            "use": "official",
            "family": "Last",
            "given": [
              "Example",
              "Something",
              "Middle"
            ],
            "suffix": [
              "Jr."
            ]
          }
        ],
        "gender": "male",
        "birthDate": "1940-02-19T16:48:06.498822-05:00",
        "address": [
          {
            "line": [
              "101 Example Street",
              "Line 2"
            ],
            "city": "Bedford",
            "district": "Middlesex",
            "state": "Massachusetts",
            "postalCode": "01730",
            "country": "United States"
          }
        ],
        "maritalStatus": {
          "coding": [
            {
              "system": "http://hl7.org/fhir/v3/MaritalStatus",
              "code": "S",
              "display": "Never Married"
            }
          ]
        }
      }
    },
    {
      "fullUrl": "urn:uuid:fb60ae20-0074-4edf-83c0-0732ff6ef141",
      "resource": {
        "resourceType": "Practitioner",
        "id": "urn:uuid:fb60ae20-0074-4edf-83c0-0732ff6ef141",
        "meta": {
          "profile": [
            "http://www.hl7.org/fhir/us/vrdr/StructureDefinition/VRDR-Certifier"
          ]
        },
        "name": [
          {
            "use": "official",
            "family": "Last",
            "given": [
              "Doctor",
              "Middle"
            ],
            "suffix": [
              "Jr."
            ]
          }
        ],
        "address": [
          {
            "line": [
              "11 Example Street",
              "Line 2"
            ],
            "city": "Bedford",
            "district": "Middlesex",
            "state": "Massachusetts",
            "postalCode": "01730",
            "country": "United States"
          }
        ],
        "qualification": [
          {
            "code": {
              "coding": [
                {
                  "system": "http://hl7.org/fhir/v2/0360/2.7",
                  "code": "MD",
                  "display": "Doctor of Medicine"
                }
              ]
            }
          }
        ]
      }
    },
    {
      "fullUrl": "urn:uuid:1a7877f4-988c-47f6-9ad9-e6e65f67dde2",
      "resource": {
        "resourceType": "Practitioner",
        "id": "urn:uuid:1a7877f4-988c-47f6-9ad9-e6e65f67dde2",
        "meta": {
          "profile": [
            "http://www.hl7.org/fhir/us/vrdr/StructureDefinition/VRDR-Mortician"
          ]
        },
        "name": [
          {
            "use": "official",
            "family": "Last",
            "given": [
              "FD",
              "Middle"
            ],
            "suffix": [
              "Jr."
            ]
          }
        ],
        "qualification": [
          {
            "identifier": [
              {
                "value": "9876543210"
              }
            ]
          }
        ]
      }
    },
    {
      "fullUrl": "urn:uuid:d78430ea-36ac-4a00-9cb4-eb177c10613f",
      "resource": {
        "resourceType": "Procedure",
        "id": "urn:uuid:d78430ea-36ac-4a00-9cb4-eb177c10613f",
        "meta": {
          "profile": [
            "http://www.hl7.org/fhir/us/vrdr/StructureDefinition/VRDR-Death-Certification"
          ]
        },
        "status": "completed",
        "category": {
          "coding": [
            {
              "system": "http://snomed.info/sct",
              "code": "103693007",
              "display": "Diagnostic procedure"
            }
          ]
        },
        "code": {
          "coding": [
            {
              "system": "http://snomed.info/sct",
              "code": "308646001",
              "display": "Death certification"
            }
          ]
        },
        "performedString": "2019-01-29T16:48:06.498822-05:00",
        "performer": [
          {
            "role": {
              "coding": [
                {
                  "system": "http://snomed.info/sct",
                  "code": "309343006",
                  "display": "Physician"
                }
              ]
            },
            "actor": {
              "reference": "urn:uuid:fb60ae20-0074-4edf-83c0-0732ff6ef141"
            }
          }
        ]
      }
    },
    {
      "fullUrl": "urn:uuid:2746f741-41ec-4358-9f79-538e5ef6731a",
      "resource": {
        "resourceType": "Organization",
        "id": "urn:uuid:2746f741-41ec-4358-9f79-538e5ef6731a",
        "meta": {
          "profile": [
            "http://www.hl7.org/fhir/us/vrdr/StructureDefinition/VRDR-Interested-Party"
          ]
        },
        "identifier": [
          {
            "value": "1010101"
          }
        ],
        "active": true,
        "type": [
          {
            "coding": [
              {
                "system": "http://terminology.hl7.org/CodeSystem/organization-type",
                "code": "prov",
                "display": "Healthcare Provider"
              }
            ]
          }
        ],
        "name": "Example Hospital",
        "address": [
          {
            "line": [
              "10 Example Street",
              "Line 2"
            ],
            "city": "Bedford",
            "district": "Middlesex",
            "state": "Massachusetts",
            "postalCode": "01730",
            "country": "United States"
          }
        ]
      }
    },
    {
      "fullUrl": "urn:uuid:56ca40d2-412e-410d-bef2-e0ed0263e6d5",
      "resource": {
        "resourceType": "Organization",
        "id": "urn:uuid:56ca40d2-412e-410d-bef2-e0ed0263e6d5",
        "meta": {
          "profile": [
            "http://www.hl7.org/fhir/us/vrdr/StructureDefinition/VRDR-Funeral-Home"
          ]
        },
        "type": [
          {
            "coding": [
              {
                "code": "bus",
                "display": "Non-Healthcare Business or Corporation"
              }
            ]
          }
        ],
        "name": "Smith Funeral Home",
        "address": [
          {
            "line": [
              "1011010 Example Street",
              "Line 2"
            ],
            "city": "Bedford",
            "district": "Middlesex",
            "state": "Massachusetts",
            "postalCode": "01730",
            "country": "United States"
          }
        ]
      }
    },
    {
      "fullUrl": "urn:uuid:6d8dbf2f-df1d-458d-ad8f-016a71c916c3",
      "resource": {
        "resourceType": "PractitionerRole",
        "id": "urn:uuid:6d8dbf2f-df1d-458d-ad8f-016a71c916c3",
        "meta": {
          "profile": [
            "http://www.hl7.org/fhir/us/vrdr/StructureDefinition/VRDR-Funeral-Home-Director"
          ]
        },
        "practitioner": {
          "reference": "urn:uuid:1a7877f4-988c-47f6-9ad9-e6e65f67dde2"
        },
        "organization": {
          "reference": "urn:uuid:56ca40d2-412e-410d-bef2-e0ed0263e6d5"
        }
      }
    },
    {
      "fullUrl": "urn:uuid:43296ff0-9208-4f76-93a9-91f4f2292ce5",
      "resource": {
        "resourceType": "List",
        "id": "urn:uuid:43296ff0-9208-4f76-93a9-91f4f2292ce5",
        "meta": {
          "profile": [
            "http://www.hl7.org/fhir/us/vrdr/StructureDefinition/VRDR-Cause-of-Death-Pathway"
          ]
        },
        "status": "current",
        "mode": "snapshot",
        "source": {
          "reference": "urn:uuid:fb60ae20-0074-4edf-83c0-0732ff6ef141"
        },
        "orderedBy": {
          "coding": [
            {
              "code": "priority"
            }
          ]
        },
        "entry": [
          {
            "item": {
              "reference": "urn:uuid:9e818d52-f227-43e4-8adc-7b4bfd27e7f0"
            }
          },
          {
            "item": {
              "reference": "urn:uuid:c08de6a4-b033-4a20-a816-65de0f0f1690"
            }
          },
          {
            "item": {
              "reference": "urn:uuid:1f853753-5f87-49d0-ba76-70b069d1b791"
            }
          },
          {
            "item": {
              "reference": "urn:uuid:819bdaf8-783f-421e-8b3e-47475af18e4e"
            }
          }
        ]
      }
    },
    {
      "fullUrl": "urn:uuid:9bf3b560-d659-45f4-8a09-505ad0ec20df",
      "resource": {
        "resourceType": "Location",
        "id": "urn:uuid:9bf3b560-d659-45f4-8a09-505ad0ec20df",
        "meta": {
          "profile": [
            "http://www.hl7.org/fhir/us/vrdr/StructureDefinition/VRDR-Disposition-Location"
          ]
        },
        "name": "Bedford Cemetery",
        "address": {
          "line": [
            "603 Example Street",
            "Line 2"
          ],
          "city": "Bedford",
          "district": "Middlesex",
          "state": "Massachusetts",
          "postalCode": "01730",
          "country": "United States"
        }
      }
    },
    {
      "fullUrl": "urn:uuid:a2de17f6-0281-48e5-8b5d-b9fd6e7ba07e",
      "resource": {
        "resourceType": "Observation",
        "id": "urn:uuid:a2de17f6-0281-48e5-8b5d-b9fd6e7ba07e",
        "meta": {
          "profile": [
            "http://www.hl7.org/fhir/us/vrdr/StructureDefinition/VRDR-Manner-of-Death"
          ]
        },
        "status": "final",
        "code": {
          "coding": [
            {
              "system": "http://loinc.org",
              "code": "69449-7",
              "display": "Manner of death"
            }
          ]
        },
        "subject": {
          "reference": "urn:uuid:c1721070-a78d-4abd-974a-b083ca9f35ca"
        },
        "performer": [
          {
            "reference": "urn:uuid:fb60ae20-0074-4edf-83c0-0732ff6ef141"
          }
        ],
        "valueCodeableConcept": {
          "coding": [
            {
              "code": "7878000",
              "display": "Accident"
            }
          ]
        }
      }
    },
    {
      "fullUrl": "urn:uuid:872c52a4-0064-4360-87f5-5cf33da5686e",
      "resource": {
        "resourceType": "Condition",
        "id": "urn:uuid:872c52a4-0064-4360-87f5-5cf33da5686e",
        "meta": {
          "profile": [
            "http://www.hl7.org/fhir/us/vrdr/StructureDefinition/VRDR-Condition-Contributing-To-Death"
          ]
        },
        "code": {
          "text": "Example Contributing Conditions"
        },
        "subject": {
          "reference": "urn:uuid:c1721070-a78d-4abd-974a-b083ca9f35ca"
        }
      }
    },
    {
      "fullUrl": "urn:uuid:9e818d52-f227-43e4-8adc-7b4bfd27e7f0",
      "resource": {
        "resourceType": "Condition",
        "id": "urn:uuid:9e818d52-f227-43e4-8adc-7b4bfd27e7f0",
        "meta": {
          "profile": [
            "http://www.hl7.org/fhir/us/vrdr/StructureDefinition/VRDR-Cause-Of-Death-Condition"
          ]
        },
        "code": {
          "coding": [
            {
              "system": "http://hl7.org/fhir/sid/icd-10",
              "code": "I21.0",
              "display": "Acute transmural myocardial infarction of anterior wall"
            }
          ],
          "text": "Rupture of myocardium"
        },
        "subject": {
          "reference": "urn:uuid:c1721070-a78d-4abd-974a-b083ca9f35ca"
        },
        "onsetString": "minutes",
        "asserter": {
          "reference": "urn:uuid:fb60ae20-0074-4edf-83c0-0732ff6ef141"
        }
      }
    },
    {
      "fullUrl": "urn:uuid:c08de6a4-b033-4a20-a816-65de0f0f1690",
      "resource": {
        "resourceType": "Condition",
        "id": "urn:uuid:c08de6a4-b033-4a20-a816-65de0f0f1690",
        "meta": {
          "profile": [
            "http://www.hl7.org/fhir/us/vrdr/StructureDefinition/VRDR-Cause-Of-Death-Condition"
          ]
        },
        "code": {
          "coding": [
            {
              "system": "http://hl7.org/fhir/sid/icd-10",
              "code": "I21.9",
              "display": "Acute myocardial infarction, unspecified"
            }
          ],
          "text": "Acute myocardial infarction"
        },
        "subject": {
          "reference": "urn:uuid:c1721070-a78d-4abd-974a-b083ca9f35ca"
        },
        "onsetString": "6 days",
        "asserter": {
          "reference": "urn:uuid:fb60ae20-0074-4edf-83c0-0732ff6ef141"
        }
      }
    },
    {
      "fullUrl": "urn:uuid:1f853753-5f87-49d0-ba76-70b069d1b791",
      "resource": {
        "resourceType": "Condition",
        "id": "urn:uuid:1f853753-5f87-49d0-ba76-70b069d1b791",
        "meta": {
          "profile": [
            "http://www.hl7.org/fhir/us/vrdr/StructureDefinition/VRDR-Cause-Of-Death-Condition"
          ]
        },
        "code": {
          "text": "Coronary artery thrombosis"
        },
        "subject": {
          "reference": "urn:uuid:c1721070-a78d-4abd-974a-b083ca9f35ca"
        },
        "onsetString": "5 years",
        "asserter": {
          "reference": "urn:uuid:fb60ae20-0074-4edf-83c0-0732ff6ef141"
        }
      }
    },
    {
      "fullUrl": "urn:uuid:819bdaf8-783f-421e-8b3e-47475af18e4e",
      "resource": {
        "resourceType": "Condition",
        "id": "urn:uuid:819bdaf8-783f-421e-8b3e-47475af18e4e",
        "meta": {
          "profile": [
            "http://www.hl7.org/fhir/us/vrdr/StructureDefinition/VRDR-Cause-Of-Death-Condition"
          ]
        },
        "code": {
          "text": "Atherosclerotic coronary artery disease"
        },
        "subject": {
          "reference": "urn:uuid:c1721070-a78d-4abd-974a-b083ca9f35ca"
        },
        "onsetString": "7 years",
        "asserter": {
          "reference": "urn:uuid:fb60ae20-0074-4edf-83c0-0732ff6ef141"
        }
      }
    },
    {
      "fullUrl": "urn:uuid:9c055c8c-2d2f-4746-82af-20177d708fd1",
      "resource": {
        "resourceType": "RelatedPerson",
        "id": "urn:uuid:9c055c8c-2d2f-4746-82af-20177d708fd1",
        "meta": {
          "profile": [
            "http://www.hl7.org/fhir/us/vrdr/StructureDefinition/VRDR-Decedent-Father"
          ]
        },
        "patient": {
          "reference": "urn:uuid:c1721070-a78d-4abd-974a-b083ca9f35ca"
        },
        "relationship": {
          "coding": [
            {
              "code": "FTH"
            }
          ]
        },
        "name": [
          {
            "family": "Last",
            "given": [
              "Father",
              "Middle"
            ],
            "suffix": [
              "Sr."
            ]
          }
        ]
      }
    },
    {
      "fullUrl": "urn:uuid:2f3a5f58-6bad-4f3b-b9d3-89936cdbe104",
      "resource": {
        "resourceType": "RelatedPerson",
        "id": "urn:uuid:2f3a5f58-6bad-4f3b-b9d3-89936cdbe104",
        "meta": {
          "profile": [
            "http://www.hl7.org/fhir/us/vrdr/StructureDefinition/VRDR-Decedent-Mother"
          ]
        },
        "patient": {
          "reference": "urn:uuid:c1721070-a78d-4abd-974a-b083ca9f35ca"
        },
        "relationship": {
          "coding": [
            {
              "code": "MTH"
            }
          ]
        },
        "name": [
          {
            "family": "Maiden",
            "given": [
              "Mother",
              "Middle"
            ],
            "suffix": [
              "Dr."
            ]
          }
        ]
      }
    },
    {
      "fullUrl": "urn:uuid:e7dab674-4334-452a-89d3-5bd76bbd52a7",
      "resource": {
        "resourceType": "RelatedPerson",
        "id": "urn:uuid:e7dab674-4334-452a-89d3-5bd76bbd52a7",
        "meta": {
          "profile": [
            "http://www.hl7.org/fhir/us/vrdr/StructureDefinition/VRDR-Decedent-Spouse"
          ]
        },
        "patient": {
          "reference": "urn:uuid:c1721070-a78d-4abd-974a-b083ca9f35ca"
        },
        "relationship": {
          "coding": [
            {
              "code": "SPS"
            }
          ]
        },
        "name": [
          {
            "family": "Last",
            "given": [
              "Spouse",
              "Middle"
            ],
            "suffix": [
              "Ph.D."
            ]
          }
        ]
      }
    },
    {
      "fullUrl": "urn:uuid:c5b7153d-f903-4ecd-b5fe-451c5aa2a58d",
      "resource": {
        "resourceType": "Observation",
        "id": "urn:uuid:c5b7153d-f903-4ecd-b5fe-451c5aa2a58d",
        "meta": {
          "profile": [
            "http://www.hl7.org/fhir/us/vrdr/StructureDefinition/VRDR-Decedent-Education-Level"
          ]
        },
        "status": "final",
        "code": {
          "coding": [
            {
              "system": "http://loinc.org",
              "code": "80913-7",
              "display": "Highest level of education"
            }
          ]
        },
        "subject": {
          "reference": "urn:uuid:c1721070-a78d-4abd-974a-b083ca9f35ca"
        },
        "valueCodeableConcept": {
          "coding": [
            {
              "system": "http://hl7.org/fhir/v3/EducationLevel",
              "code": "BD",
              "display": "College or baccalaureate degree complete"
            }
          ]
        }
      }
    },
    {
      "fullUrl": "urn:uuid:207a0fa5-3845-4878-8995-1cf39fabb596",
      "resource": {
        "resourceType": "Observation",
        "id": "urn:uuid:207a0fa5-3845-4878-8995-1cf39fabb596",
        "meta": {
          "profile": [
            "http://www.hl7.org/fhir/us/vrdr/StructureDefinition/VRDR-Birth-Record-Identifier"
          ]
        },
        "status": "final",
        "code": {
          "coding": [
            {
              "code": "BR"
            }
          ]
        },
        "subject": {
          "reference": "urn:uuid:c1721070-a78d-4abd-974a-b083ca9f35ca"
        },
        "valueString": "4242123"
      }
    },
    {
      "fullUrl": "urn:uuid:6ea1b997-c60e-446c-9469-600a5f124d47",
      "resource": {
        "resourceType": "Observation",
        "id": "urn:uuid:6ea1b997-c60e-446c-9469-600a5f124d47",
        "meta": {
          "profile": [
            "http://www.hl7.org/fhir/us/vrdr/StructureDefinition/VRDR-Decedent-Employment-History"
          ]
        },
        "status": "final",
        "code": {
          "coding": [
            {
              "system": "http://loinc.org",
              "code": "74165-2",
              "display": "History of employment status"
            }
          ]
        },
        "subject": {
          "reference": "urn:uuid:c1721070-a78d-4abd-974a-b083ca9f35ca"
        },
        "component": [
          {
            "code": {
              "coding": [
                {
                  "system": "http://loinc.org",
                  "code": "21847-9",
                  "display": "Usual occupation"
                }
              ]
            },
            "valueCodeableConcept": {
              "coding": [
                {
                  "system": "http://www.hl7.org/fhir/ValueSet/Usual-occupation",
                  "code": "7280",
                  "display": "Accounting, tax preparation, bookkeeping, and payroll services"
                }
              ]
            }
          },
          {
            "code": {
              "coding": [
                {
                  "system": "http://loinc.org",
                  "code": "21844-6",
                  "display": "Usual industry"
                }
              ]
            },
            "valueCodeableConcept": {
              "coding": [
                {
                  "system": "http://www.hl7.org/fhir/ValueSet/industry-cdc-census-2010",
                  "code": "1320",
                  "display": "Aerospace engineers"
                }
              ]
            }
          },
          {
            "code": {
              "coding": [
                {
                  "system": "http://loinc.org",
                  "code": "55280-2",
                  "display": "Military service"
                }
              ]
            },
            "valueCodeableConcept": {
              "coding": [
                {
                  "system": "http://www.hl7.org/fhir/ValueSet/v2-0532",
                  "code": "Y",
                  "display": "Yes"
                }
              ]
            }
          }
        ]
      }
    },
    {
      "fullUrl": "urn:uuid:5bdf1669-9f59-4fc5-9ea7-56c919d73d4e",
      "resource": {
        "resourceType": "Observation",
        "id": "urn:uuid:5bdf1669-9f59-4fc5-9ea7-56c919d73d4e",
        "meta": {
          "profile": [
            "http://www.hl7.org/fhir/us/vrdr/StructureDefinition/VRDR-Decedent-Disposition-Method"
          ]
        },
        "extension": [
          {
            "url": "http://www.hl7.org/fhir/us/vrdr/StructureDefinition/VRDR-Disposition-Location",
            "valueReference": {
              "reference": "urn:uuid:9bf3b560-d659-45f4-8a09-505ad0ec20df"
            }
          }
        ],
        "status": "final",
        "code": {
          "coding": [
            {
              "system": "http://loinc.org",
              "code": "80905-3",
              "display": "Body disposition method"
            }
          ]
        },
        "subject": {
          "reference": "urn:uuid:c1721070-a78d-4abd-974a-b083ca9f35ca"
        },
        "performer": [
          {
            "reference": "urn:uuid:1a7877f4-988c-47f6-9ad9-e6e65f67dde2"
          }
        ],
        "valueCodeableConcept": {
          "coding": [
            {
              "system": "http://snomed.info/sct",
              "code": "449971000124106",
              "display": "Burial"
            }
          ]
        }
      }
    },
    {
      "fullUrl": "urn:uuid:5456e711-6847-4b85-bb5a-aad70c9c5735",
      "resource": {
        "resourceType": "Observation",
        "id": "urn:uuid:5456e711-6847-4b85-bb5a-aad70c9c5735",
        "meta": {
          "profile": [
            "http://www.hl7.org/fhir/us/vrdr/StructureDefinition/VRDR-Autopsy-Performed-Indicator"
          ]
        },
        "status": "final",
        "code": {
          "coding": [
            {
              "system": "http://loinc.org",
              "code": "85699-7",
              "display": "Autopsy was performed"
            }
          ]
        },
        "subject": {
          "reference": "urn:uuid:c1721070-a78d-4abd-974a-b083ca9f35ca"
        },
        "valueCodeableConcept": {
          "coding": [
            {
              "system": "http://www.hl7.org/fhir/ValueSet/v2-0532",
              "code": "Y",
              "display": "Yes"
            }
          ]
        },
        "component": [
          {
            "code": {
              "coding": [
                {
                  "system": "http://loinc.org",
                  "code": "69436-4",
                  "display": "Autopsy results available"
                }
              ]
            },
            "valueCodeableConcept": {
              "coding": [
                {
                  "system": "http://www.hl7.org/fhir/ValueSet/v2-0532",
                  "code": "Y",
                  "display": "Yes"
                }
              ]
            }
          }
        ]
      }
    },
    {
      "fullUrl": "urn:uuid:771c6b64-b017-4f19-b1d3-80e51ec70a31",
      "resource": {
        "resourceType": "Observation",
        "id": "urn:uuid:771c6b64-b017-4f19-b1d3-80e51ec70a31",
        "meta": {
          "profile": [
            "http://www.hl7.org/fhir/us/vrdr/StructureDefinition/VRDR-Decedent-Age"
          ]
        },
        "status": "final",
        "code": {
          "coding": [
            {
              "system": "http://loinc.org",
              "code": "30525-0",
              "display": "Age"
            }
          ]
        },
        "subject": {
          "reference": "urn:uuid:c1721070-a78d-4abd-974a-b083ca9f35ca"
        },
        "valueQuantity": {
          "value": 100,
          "unit": "a"
        }
      }
    },
    {
      "fullUrl": "urn:uuid:54a057f0-a4c9-4257-89a4-0eafff07cec5",
      "resource": {
        "resourceType": "Observation",
        "id": "urn:uuid:54a057f0-a4c9-4257-89a4-0eafff07cec5",
        "meta": {
          "profile": [
            "http://www.hl7.org/fhir/us/vrdr/StructureDefinition/VRDR-Decedent-Pregnancy"
          ]
        },
        "status": "final",
        "code": {
          "coding": [
            {
              "system": "http://loinc.org",
              "code": "69442-2",
              "display": "Timing of recent pregnancy in relation to death"
            }
          ]
        },
        "subject": {
          "reference": "urn:uuid:c1721070-a78d-4abd-974a-b083ca9f35ca"
        },
        "valueCodeableConcept": {
          "coding": [
            {
              "system": "http://www.hl7.org/fhir/stu3/valueset-PregnancyStatusVS",
              "code": "PHC1260",
              "display": "Not pregnant within past year"
            }
          ]
        }
      }
    },
    {
      "fullUrl": "urn:uuid:5c49f5b0-1b01-4b37-9c9f-5f4d4224a8d6",
      "resource": {
        "resourceType": "Observation",
        "id": "urn:uuid:5c49f5b0-1b01-4b37-9c9f-5f4d4224a8d6",
        "meta": {
          "profile": [
            "http://www.hl7.org/fhir/us/vrdr/StructureDefinition/VRDR-Decedent-Transportation-Role"
          ]
        },
        "status": "final",
        "code": {
          "coding": [
            {
              "system": "http://loinc.org",
              "code": "69451-3",
              "display": "Transportation role of decedent"
            }
          ]
        },
        "subject": {
          "reference": "urn:uuid:c1721070-a78d-4abd-974a-b083ca9f35ca"
        },
        "valueCodeableConcept": {
          "coding": [
            {
              "system": "http://www.hl7.org/fhir/stu3/valueset-TransportationRelationships",
              "code": "example-code",
              "display": "Example Code"
            }
          ]
        }
      }
    },
    {
      "fullUrl": "urn:uuid:de388294-7d63-4e9f-9a27-08ef5342cee1",
      "resource": {
        "resourceType": "Observation",
        "id": "urn:uuid:de388294-7d63-4e9f-9a27-08ef5342cee1",
        "meta": {
          "profile": [
            "http://www.hl7.org/fhir/us/vrdr/StructureDefinition/VRDR-Examiner-Contacted"
          ]
        },
        "status": "final",
        "code": {
          "coding": [
            {
              "system": "http://loinc.org",
              "code": "74497-9",
              "display": "Medical examiner or coroner was contacted"
            }
          ]
        },
        "subject": {
          "reference": "urn:uuid:c1721070-a78d-4abd-974a-b083ca9f35ca"
        },
        "valueBoolean": false
      }
    },
    {
      "fullUrl": "urn:uuid:cfead8cb-5125-4dba-8fe0-6a45434a8e50",
      "resource": {
        "resourceType": "Observation",
        "id": "urn:uuid:cfead8cb-5125-4dba-8fe0-6a45434a8e50",
        "meta": {
          "profile": [
            "http://www.hl7.org/fhir/us/vrdr/StructureDefinition/VRDR-Tobacco-Use-Contributed-To-Death"
          ]
        },
        "status": "final",
        "code": {
          "coding": [
            {
              "system": "http://loinc.org",
              "code": "69443-0",
              "display": "Did tobacco use contribute to death"
            }
          ]
        },
        "subject": {
          "reference": "urn:uuid:c1721070-a78d-4abd-974a-b083ca9f35ca"
        },
        "valueCodeableConcept": {
          "coding": [
            {
              "system": "http://www.hl7.org/fhir/ValueSet/v2-0532",
              "code": "Y",
              "display": "Yes"
            }
          ]
        }
      }
    },
    {
      "fullUrl": "urn:uuid:610a1a5d-b4f9-4a26-92c4-da58767b65de",
      "resource": {
        "resourceType": "Location",
        "id": "urn:uuid:610a1a5d-b4f9-4a26-92c4-da58767b65de",
        "meta": {
          "profile": [
            "http://www.hl7.org/fhir/us/vrdr/StructureDefinition/VRDR-Injury-Location"
          ]
        },
        "name": "Example Injury Location Name",
        "description": "Example Injury Location Description",
        "address": {
          "line": [
            "781 Example Street",
            "Line 2"
          ],
          "city": "Bedford",
          "district": "Middlesex",
          "state": "Massachusetts",
          "postalCode": "01730",
          "country": "United States"
        }
      }
    },
    {
      "fullUrl": "urn:uuid:3926a1a5-e41e-4a22-99ab-3639740c931d",
      "resource": {
        "resourceType": "Observation",
        "id": "urn:uuid:3926a1a5-e41e-4a22-99ab-3639740c931d",
        "meta": {
          "profile": [
            "http://www.hl7.org/fhir/us/vrdr/StructureDefinition/VRDR-Injury-Incident"
          ]
        },
        "status": "final",
        "code": {
          "coding": [
            {
              "system": "http://loinc.org",
              "code": "11374-6",
              "display": "Injury incident description"
            }
          ]
        },
        "subject": {
          "reference": "urn:uuid:c1721070-a78d-4abd-974a-b083ca9f35ca"
        },
        "effectiveDateTime": "2018-02-19T16:48:06.498822-05:00"
      }
    },
    {
      "fullUrl": "urn:uuid:d1586aec-9f21-4a21-b369-8f3bcd1e8c55",
      "resource": {
        "resourceType": "Location",
        "id": "urn:uuid:d1586aec-9f21-4a21-b369-8f3bcd1e8c55",
        "meta": {
          "profile": [
            "http://www.hl7.org/fhir/us/vrdr/StructureDefinition/VRDR-Death-Location"
          ]
        },
        "name": "Example Death Location Name",
        "description": "Example Death Location Description",
        "address": {
          "line": [
            "671 Example Street",
            "Line 2"
          ],
          "city": "Bedford",
          "district": "Middlesex",
          "state": "Massachusetts",
          "postalCode": "01730",
          "country": "United States"
        }
      }
    },
    {
      "fullUrl": "urn:uuid:618cf470-fc32-4bd4-8a7c-72f55c51a865",
      "resource": {
        "resourceType": "Observation",
        "id": "urn:uuid:618cf470-fc32-4bd4-8a7c-72f55c51a865",
        "meta": {
          "profile": [
            "http://www.hl7.org/fhir/us/vrdr/StructureDefinition/VRDR-Death-Date"
          ]
        },
        "status": "final",
        "code": {
          "coding": [
            {
              "system": "http://loinc.org",
              "code": "81956-5",
              "display": "Date and time of death"
            }
          ]
        },
        "subject": {
          "reference": "urn:uuid:c1721070-a78d-4abd-974a-b083ca9f35ca"
        },
        "effectiveDateTime": "2018-02-19T16:48:06.498822-05:00",
        "performer": [
          {
            "reference": "urn:uuid:fb60ae20-0074-4edf-83c0-0732ff6ef141"
          }
        ],
        "component": [
          {
            "code": {
              "coding": [
                {
                  "system": "http://loinc.org",
                  "code": "80616-6",
                  "display": "Date and time pronounced dead"
                }
              ]
            },
            "valueDateTime": "2018-02-20T16:48:06.498822-05:00"
          }
        ]
      }
    }
  ]
}


