{
  "resourceType": "Bundle",
  "id": "urn:uuid:e79232fb-817f-41d1-8a44-b7e212419957",
  "meta": {
    "profile": [
      "http://www.hl7.org/fhir/us/vrdr/StructureDefinition/VRDR-Death-Certificate-Document"
    ]
  },
  "identifier": {
    "value": "42"
  },
  "type": "document",
  "entry": [
    {
      "fullUrl": "urn:uuid:79d3c69e-d110-48cd-80a3-8bb1f2625ab0",
      "resource": {
        "resourceType": "Composition",
        "id": "urn:uuid:79d3c69e-d110-48cd-80a3-8bb1f2625ab0",
        "meta": {
          "profile": [
            "http://www.hl7.org/fhir/us/vrdr/StructureDefinition/VRDR-Death-Certificate"
          ]
        },
        "identifier": {
          "value": "1"
        },
        "status": "final",
        "type": {
          "coding": [
            {
              "system": "http://loinc.org",
              "code": "64297-5",
              "display": "Death certificate"
            }
          ]
        },
        "subject": {
          "reference": "urn:uuid:11ef119d-6838-4e35-921c-1e54d24495a9"
        },
        "date": "2019-01-20T16:47:04.498822-05:00",
        "attester": [
          {
            "mode": [
              "legal"
            ],
            "time": "2019-01-29T16:48:06.498822-05:00",
            "party": {
              "reference": "urn:uuid:b246458c-aaf7-4741-b96d-9d27d7a5efd0"
            }
          }
        ],
        "event": [
          {
            "code": [
              {
                "coding": [
                  {
                    "system": "http://snomed.info/sct",
                    "code": "103693007",
                    "display": "Diagnostic procedure"
                  }
                ]
              }
            ],
            "detail": [
              {
                "reference": "urn:uuid:ffc6dc11-0897-4e7d-9331-0bbe51b47981"
              }
            ]
          }
        ],
        "section": [
          {
            "entry": [
              {
                "reference": "urn:uuid:11ef119d-6838-4e35-921c-1e54d24495a9"
              },
              {
                "reference": "urn:uuid:b246458c-aaf7-4741-b96d-9d27d7a5efd0"
              },
              {
                "reference": "urn:uuid:fdf43f0b-1536-4fd7-ab14-83f256628fd5"
              },
              {
                "reference": "urn:uuid:ffc6dc11-0897-4e7d-9331-0bbe51b47981"
              },
              {
                "reference": "urn:uuid:0cdd8726-9972-47fa-bd52-1592d0f0e9ce"
              },
              {
                "reference": "urn:uuid:6ae78a96-0f01-486d-afce-87a2d6913a8e"
              },
              {
                "reference": "urn:uuid:e06e64c8-44fb-4e4f-8883-b87d5f293ba9"
              },
              {
                "reference": "urn:uuid:ac8f8cf4-2c15-4901-8739-b8e1051838ab"
              },
              {
                "reference": "urn:uuid:58e0e871-cd29-4271-9b52-6baa0e05b0fc"
              },
              {
                "reference": "urn:uuid:b4acda15-ff66-4714-816b-86bfa2469a6a"
              },
              {
                "reference": "urn:uuid:41f61603-7587-41a4-9f79-6631142fd569"
              },
              {
                "reference": "urn:uuid:7c1a0c7b-2053-47a8-8699-83e3b1b8633e"
              },
              {
                "reference": "urn:uuid:4636cb51-17dc-4a05-a556-f8d2a7996b98"
              },
              {
                "reference": "urn:uuid:dc846ff2-5cef-43c8-8fc8-547ded32cfe8"
              },
              {
                "reference": "urn:uuid:4dc86e29-22ac-430d-a11b-773b205a79ed"
              },
              {
                "reference": "urn:uuid:f4f9c3ae-e733-4896-b038-ca3aac319480"
              },
              {
                "reference": "urn:uuid:a4450793-cc91-4074-ac58-f0b9b02f008a"
              },
              {
                "reference": "urn:uuid:15fb109a-9a7a-4dc0-a160-897e39ddab74"
              },
              {
                "reference": "urn:uuid:560d81b9-a1c3-4e2c-9ae8-7bdecbdba3fb"
              },
              {
                "reference": "urn:uuid:5a26b139-482c-4d88-9a3e-b35830c5887b"
              },
              {
                "reference": "urn:uuid:e4161cf5-41e1-430f-9f77-9d6f8654be77"
              },
              {
                "reference": "urn:uuid:4e4c1928-0d66-45b9-8c47-eff425d88c00"
              },
              {
                "reference": "urn:uuid:c1b24749-5dbe-4d82-8e92-92ac9ef410b9"
              },
              {
                "reference": "urn:uuid:fdc09339-8687-460a-9fcf-4f2338c22809"
              },
              {
                "reference": "urn:uuid:1c463fa4-dce3-4af2-b9d1-cdd39905445f"
              },
              {
                "reference": "urn:uuid:89b02986-8797-44ea-b779-0a407495d6ae"
              },
              {
                "reference": "urn:uuid:232c6765-7149-484d-88f8-fb1d8605c03c"
              },
              {
                "reference": "urn:uuid:1b71bd58-a3c0-4e9d-8416-d2c02a53bcf7"
              },
              {
                "reference": "urn:uuid:dc812f4c-b54c-4f5b-8838-6bd900336ac2"
              },
              {
                "reference": "urn:uuid:ca7c2a07-68bb-4171-97c8-2a6cb5b0e4db"
              },
              {
                "reference": "urn:uuid:bb108c6a-307a-4ce1-aae9-b59b6bd6b401"
              },
              {
                "reference": "urn:uuid:6784e92f-54b9-457a-bb26-ef371dfe7be9"
              }
            ]
          }
        ]
      }
    },
    {
      "fullUrl": "urn:uuid:11ef119d-6838-4e35-921c-1e54d24495a9",
      "resource": {
        "resourceType": "Patient",
        "id": "urn:uuid:11ef119d-6838-4e35-921c-1e54d24495a9",
        "meta": {
          "profile": [
            "http://www.hl7.org/fhir/us/vrdr/StructureDefinition/VRDR-Decedent"
          ]
        },
        "extension": [
          {
            "url": "http://hl7.org/fhir/us/core/StructureDefinition/us-core-birthsex",
            "valueCodeableConcept": {
              "coding": [
                {
                  "system": "http://hl7.org/fhir/us/core/ValueSet/us-core-birthsex",
                  "code": "M",
                  "display": "Male"
                }
              ]
            }
          },
          {
            "extension": [
              {
                "url": "ombCategory",
                "valueCoding": {
                  "system": "urn:oid:2.16.840.1.113883.6.238",
                  "code": "2135-2",
                  "display": "Hispanic or Latino"
                }
              },
              {
                "url": "detailed",
                "valueCoding": {
                  "system": "urn:oid:2.16.840.1.113883.6.238",
                  "code": "2180-8",
                  "display": "Puerto Rican"
                }
              },
              {
                "url": "text",
                "valueString": "Hispanic or Latino, Puerto Rican"
              }
            ],
            "url": "http://hl7.org/fhir/us/core/StructureDefinition/us-core-ethnicity"
          },
          {
            "extension": [
              {
                "url": "ombCategory",
                "valueCoding": {
                  "system": "urn:oid:2.16.840.1.113883.6.238",
                  "code": "2106-3",
                  "display": "White"
                }
              },
              {
                "url": "ombCategory",
                "valueCoding": {
                  "system": "urn:oid:2.16.840.1.113883.6.238",
                  "code": "2076-8",
                  "display": "Native Hawaiian or Other Pacific Islander"
                }
              },
              {
                "url": "text",
                "valueString": "White, Native Hawaiian or Other Pacific Islander"
              }
            ],
            "url": "http://hl7.org/fhir/us/core/StructureDefinition/us-core-race"
          },
          {
            "url": "http://www.hl7.org/fhir/StructureDefinition/birthPlace",
            "valueAddress": {
              "line": [
                "1011 Example Street",
                "Line 2"
              ],
              "city": "Bedford",
              "district": "Middlesex",
              "state": "Massachusetts",
              "postalCode": "01730",
              "country": "United States"
            }
          }
        ],
        "identifier": [
          {
            "type": {
              "coding": [
                {
                  "code": "BR",
                  "display": "Social Beneficiary Identifier"
                }
              ]
            },
            "system": "http://hl7.org/fhir/sid/us-ssn",
            "value": "123456789"
          }
        ],
        "name": [
          {
            "use": "official",
            "family": "Last",
            "given": [
              "Example",
              "Something",
              "Middle"
            ],
            "suffix": [
              "Jr."
            ]
          }
        ],
        "gender": "male",
        "birthDate": "1940-02-19T16:48:06.498822-05:00",
        "address": [
          {
            "line": [
              "101 Example Street",
              "Line 2"
            ],
            "city": "Bedford",
            "district": "Middlesex",
            "state": "Massachusetts",
            "postalCode": "01730",
            "country": "United States"
          }
        ],
        "maritalStatus": {
          "coding": [
            {
              "system": "http://hl7.org/fhir/v3/MaritalStatus",
              "code": "S",
              "display": "Never Married"
            }
          ]
        }
      }
    },
    {
      "fullUrl": "urn:uuid:b246458c-aaf7-4741-b96d-9d27d7a5efd0",
      "resource": {
        "resourceType": "Practitioner",
        "id": "urn:uuid:b246458c-aaf7-4741-b96d-9d27d7a5efd0",
        "meta": {
          "profile": [
            "http://www.hl7.org/fhir/us/vrdr/StructureDefinition/VRDR-Certifier"
          ]
        },
        "name": [
          {
            "use": "official",
            "family": "Last",
            "given": [
              "Doctor",
              "Middle"
            ],
            "suffix": [
              "Jr."
            ]
          }
        ],
        "address": [
          {
            "line": [
              "11 Example Street",
              "Line 2"
            ],
            "city": "Bedford",
            "district": "Middlesex",
            "state": "Massachusetts",
            "postalCode": "01730",
            "country": "United States"
          }
        ],
        "qualification": [
          {
            "code": {
              "coding": [
                {
                  "system": "http://hl7.org/fhir/v2/0360/2.7",
                  "code": "MD",
                  "display": "Doctor of Medicine"
                }
              ]
            }
          }
        ]
      }
    },
    {
      "fullUrl": "urn:uuid:fdf43f0b-1536-4fd7-ab14-83f256628fd5",
      "resource": {
        "resourceType": "Practitioner",
        "id": "urn:uuid:fdf43f0b-1536-4fd7-ab14-83f256628fd5",
        "meta": {
          "profile": [
            "http://www.hl7.org/fhir/us/vrdr/StructureDefinition/VRDR-Mortician"
          ]
        },
        "name": [
          {
            "use": "official",
            "family": "Last",
            "given": [
              "FD",
              "Middle"
            ],
            "suffix": [
              "Jr."
            ]
          }
        ],
        "qualification": [
          {
            "identifier": [
              {
                "value": "9876543210"
              }
            ]
          }
        ]
      }
    },
    {
      "fullUrl": "urn:uuid:ffc6dc11-0897-4e7d-9331-0bbe51b47981",
      "resource": {
        "resourceType": "Procedure",
        "id": "urn:uuid:ffc6dc11-0897-4e7d-9331-0bbe51b47981",
        "meta": {
          "profile": [
            "http://www.hl7.org/fhir/us/vrdr/StructureDefinition/VRDR-Death-Certification"
          ]
        },
        "status": "completed",
        "category": {
          "coding": [
            {
              "system": "http://snomed.info/sct",
              "code": "103693007",
              "display": "Diagnostic procedure"
            }
          ]
        },
        "code": {
          "coding": [
            {
              "system": "http://snomed.info/sct",
              "code": "308646001",
              "display": "Death certification"
            }
          ]
        },
        "performedDateTime": "2019-01-29T16:48:06.498822-05:00",
        "performer": [
          {
            "role": {
              "coding": [
                {
                  "system": "http://snomed.info/sct",
                  "code": "309343006",
                  "display": "Physician"
                }
              ]
            },
            "actor": {
              "reference": "urn:uuid:b246458c-aaf7-4741-b96d-9d27d7a5efd0"
            }
          }
        ]
      }
    },
    {
      "fullUrl": "urn:uuid:0cdd8726-9972-47fa-bd52-1592d0f0e9ce",
      "resource": {
        "resourceType": "Organization",
        "id": "urn:uuid:0cdd8726-9972-47fa-bd52-1592d0f0e9ce",
        "meta": {
          "profile": [
            "http://www.hl7.org/fhir/us/vrdr/StructureDefinition/VRDR-Interested-Party"
          ]
        },
        "identifier": [
          {
            "value": "1010101"
          }
        ],
        "active": true,
        "type": [
          {
            "coding": [
              {
                "system": "http://terminology.hl7.org/CodeSystem/organization-type",
                "code": "prov",
                "display": "Healthcare Provider"
              }
            ]
          }
        ],
        "name": "Example Hospital",
        "address": [
          {
            "line": [
              "10 Example Street",
              "Line 2"
            ],
            "city": "Bedford",
            "district": "Middlesex",
            "state": "Massachusetts",
            "postalCode": "01730",
            "country": "United States"
          }
        ]
      }
    },
    {
      "fullUrl": "urn:uuid:6ae78a96-0f01-486d-afce-87a2d6913a8e",
      "resource": {
        "resourceType": "Organization",
        "id": "urn:uuid:6ae78a96-0f01-486d-afce-87a2d6913a8e",
        "meta": {
          "profile": [
            "http://www.hl7.org/fhir/us/vrdr/StructureDefinition/VRDR-Funeral-Home"
          ]
        },
        "type": [
          {
            "coding": [
              {
                "code": "bus",
                "display": "Non-Healthcare Business or Corporation"
              }
            ]
          }
        ],
        "name": "Smith Funeral Home",
        "address": [
          {
            "line": [
              "1011010 Example Street",
              "Line 2"
            ],
            "city": "Bedford",
            "district": "Middlesex",
            "state": "Massachusetts",
            "postalCode": "01730",
            "country": "United States"
          }
        ]
      }
    },
    {
      "fullUrl": "urn:uuid:e06e64c8-44fb-4e4f-8883-b87d5f293ba9",
      "resource": {
        "resourceType": "PractitionerRole",
        "id": "urn:uuid:e06e64c8-44fb-4e4f-8883-b87d5f293ba9",
        "meta": {
          "profile": [
            "http://www.hl7.org/fhir/us/vrdr/StructureDefinition/VRDR-Funeral-Home-Director"
          ]
        },
        "practitioner": {
          "reference": "urn:uuid:fdf43f0b-1536-4fd7-ab14-83f256628fd5"
        },
        "organization": {
          "reference": "urn:uuid:6ae78a96-0f01-486d-afce-87a2d6913a8e"
        }
      }
    },
    {
      "fullUrl": "urn:uuid:ac8f8cf4-2c15-4901-8739-b8e1051838ab",
      "resource": {
        "resourceType": "List",
        "id": "urn:uuid:ac8f8cf4-2c15-4901-8739-b8e1051838ab",
        "meta": {
          "profile": [
            "http://www.hl7.org/fhir/us/vrdr/StructureDefinition/VRDR-Cause-of-Death-Pathway"
          ]
        },
        "status": "current",
        "mode": "snapshot",
        "source": {
          "reference": "urn:uuid:b246458c-aaf7-4741-b96d-9d27d7a5efd0"
        },
        "orderedBy": {
          "coding": [
            {
              "code": "priority"
            }
          ]
        },
        "entry": [
          {
            "item": {
              "reference": "urn:uuid:7c1a0c7b-2053-47a8-8699-83e3b1b8633e"
            }
          },
          {
            "item": {
              "reference": "urn:uuid:4636cb51-17dc-4a05-a556-f8d2a7996b98"
            }
          },
          {
            "item": {
              "reference": "urn:uuid:dc846ff2-5cef-43c8-8fc8-547ded32cfe8"
            }
          },
          {
            "item": {
              "reference": "urn:uuid:4dc86e29-22ac-430d-a11b-773b205a79ed"
            }
          }
        ]
      }
    },
    {
      "fullUrl": "urn:uuid:58e0e871-cd29-4271-9b52-6baa0e05b0fc",
      "resource": {
        "resourceType": "Location",
        "id": "urn:uuid:58e0e871-cd29-4271-9b52-6baa0e05b0fc",
        "meta": {
          "profile": [
            "http://www.hl7.org/fhir/us/vrdr/StructureDefinition/VRDR-Disposition-Location"
          ]
        },
        "name": "Bedford Cemetery",
        "address": {
          "line": [
            "603 Example Street",
            "Line 2"
          ],
          "city": "Bedford",
          "district": "Middlesex",
          "state": "Massachusetts",
          "postalCode": "01730",
          "country": "United States"
        }
      }
    },
    {
      "fullUrl": "urn:uuid:b4acda15-ff66-4714-816b-86bfa2469a6a",
      "resource": {
        "resourceType": "Observation",
        "id": "urn:uuid:b4acda15-ff66-4714-816b-86bfa2469a6a",
        "meta": {
          "profile": [
            "http://www.hl7.org/fhir/us/vrdr/StructureDefinition/VRDR-Manner-of-Death"
          ]
        },
        "status": "final",
        "code": {
          "coding": [
            {
              "system": "http://loinc.org",
              "code": "69449-7",
              "display": "Manner of death"
            }
          ]
        },
        "subject": {
          "reference": "urn:uuid:11ef119d-6838-4e35-921c-1e54d24495a9"
        },
        "performer": [
          {
            "reference": "urn:uuid:b246458c-aaf7-4741-b96d-9d27d7a5efd0"
          }
        ],
        "valueCodeableConcept": {
          "coding": [
            {
              "code": "7878000",
              "display": "Accident"
            }
          ]
        }
      }
    },
    {
      "fullUrl": "urn:uuid:41f61603-7587-41a4-9f79-6631142fd569",
      "resource": {
        "resourceType": "Condition",
        "id": "urn:uuid:41f61603-7587-41a4-9f79-6631142fd569",
        "meta": {
          "profile": [
            "http://www.hl7.org/fhir/us/vrdr/StructureDefinition/VRDR-Condition-Contributing-To-Death"
          ]
        },
        "code": {
          "text": "Example Contributing Conditions"
        },
        "subject": {
          "reference": "urn:uuid:11ef119d-6838-4e35-921c-1e54d24495a9"
        }
      }
    },
    {
      "fullUrl": "urn:uuid:7c1a0c7b-2053-47a8-8699-83e3b1b8633e",
      "resource": {
        "resourceType": "Condition",
        "id": "urn:uuid:7c1a0c7b-2053-47a8-8699-83e3b1b8633e",
        "meta": {
          "profile": [
            "http://www.hl7.org/fhir/us/vrdr/StructureDefinition/VRDR-Cause-Of-Death-Condition"
          ]
        },
        "code": {
          "coding": [
            {
              "system": "http://hl7.org/fhir/sid/icd-10",
              "code": "I21.0",
              "display": "Acute transmural myocardial infarction of anterior wall"
            }
          ],
          "text": "Rupture of myocardium"
        },
        "subject": {
          "reference": "urn:uuid:11ef119d-6838-4e35-921c-1e54d24495a9"
        },
        "onsetString": "minutes",
        "asserter": {
          "reference": "urn:uuid:b246458c-aaf7-4741-b96d-9d27d7a5efd0"
        }
      }
    },
    {
      "fullUrl": "urn:uuid:4636cb51-17dc-4a05-a556-f8d2a7996b98",
      "resource": {
        "resourceType": "Condition",
        "id": "urn:uuid:4636cb51-17dc-4a05-a556-f8d2a7996b98",
        "meta": {
          "profile": [
            "http://www.hl7.org/fhir/us/vrdr/StructureDefinition/VRDR-Cause-Of-Death-Condition"
          ]
        },
        "code": {
          "coding": [
            {
              "system": "http://hl7.org/fhir/sid/icd-10",
              "code": "I21.9",
              "display": "Acute myocardial infarction, unspecified"
            }
          ],
          "text": "Acute myocardial infarction"
        },
        "subject": {
          "reference": "urn:uuid:11ef119d-6838-4e35-921c-1e54d24495a9"
        },
        "onsetString": "6 days",
        "asserter": {
          "reference": "urn:uuid:b246458c-aaf7-4741-b96d-9d27d7a5efd0"
        }
      }
    },
    {
      "fullUrl": "urn:uuid:dc846ff2-5cef-43c8-8fc8-547ded32cfe8",
      "resource": {
        "resourceType": "Condition",
        "id": "urn:uuid:dc846ff2-5cef-43c8-8fc8-547ded32cfe8",
        "meta": {
          "profile": [
            "http://www.hl7.org/fhir/us/vrdr/StructureDefinition/VRDR-Cause-Of-Death-Condition"
          ]
        },
        "code": {
          "text": "Coronary artery thrombosis"
        },
        "subject": {
          "reference": "urn:uuid:11ef119d-6838-4e35-921c-1e54d24495a9"
        },
        "onsetString": "5 years",
        "asserter": {
          "reference": "urn:uuid:b246458c-aaf7-4741-b96d-9d27d7a5efd0"
        }
      }
    },
    {
      "fullUrl": "urn:uuid:4dc86e29-22ac-430d-a11b-773b205a79ed",
      "resource": {
        "resourceType": "Condition",
        "id": "urn:uuid:4dc86e29-22ac-430d-a11b-773b205a79ed",
        "meta": {
          "profile": [
            "http://www.hl7.org/fhir/us/vrdr/StructureDefinition/VRDR-Cause-Of-Death-Condition"
          ]
        },
        "code": {
          "text": "Atherosclerotic coronary artery disease"
        },
        "subject": {
          "reference": "urn:uuid:11ef119d-6838-4e35-921c-1e54d24495a9"
        },
        "onsetString": "7 years",
        "asserter": {
          "reference": "urn:uuid:b246458c-aaf7-4741-b96d-9d27d7a5efd0"
        }
      }
    },
    {
      "fullUrl": "urn:uuid:f4f9c3ae-e733-4896-b038-ca3aac319480",
      "resource": {
        "resourceType": "RelatedPerson",
        "id": "urn:uuid:f4f9c3ae-e733-4896-b038-ca3aac319480",
        "meta": {
          "profile": [
            "http://www.hl7.org/fhir/us/vrdr/StructureDefinition/VRDR-Decedent-Father"
          ]
        },
        "patient": {
          "reference": "urn:uuid:11ef119d-6838-4e35-921c-1e54d24495a9"
        },
        "relationship": {
          "coding": [
            {
              "code": "FTH"
            }
          ]
        },
        "name": [
          {
            "family": "Last",
            "given": [
              "Father",
              "Middle"
            ],
            "suffix": [
              "Sr."
            ]
          }
        ]
      }
    },
    {
      "fullUrl": "urn:uuid:a4450793-cc91-4074-ac58-f0b9b02f008a",
      "resource": {
        "resourceType": "RelatedPerson",
        "id": "urn:uuid:a4450793-cc91-4074-ac58-f0b9b02f008a",
        "meta": {
          "profile": [
            "http://www.hl7.org/fhir/us/vrdr/StructureDefinition/VRDR-Decedent-Mother"
          ]
        },
        "patient": {
          "reference": "urn:uuid:11ef119d-6838-4e35-921c-1e54d24495a9"
        },
        "relationship": {
          "coding": [
            {
              "code": "MTH"
            }
          ]
        },
        "name": [
          {
            "family": "Maiden",
            "given": [
              "Mother",
              "Middle"
            ],
            "suffix": [
              "Dr."
            ]
          }
        ]
      }
    },
    {
      "fullUrl": "urn:uuid:15fb109a-9a7a-4dc0-a160-897e39ddab74",
      "resource": {
        "resourceType": "RelatedPerson",
        "id": "urn:uuid:15fb109a-9a7a-4dc0-a160-897e39ddab74",
        "meta": {
          "profile": [
            "http://www.hl7.org/fhir/us/vrdr/StructureDefinition/VRDR-Decedent-Spouse"
          ]
        },
        "patient": {
          "reference": "urn:uuid:11ef119d-6838-4e35-921c-1e54d24495a9"
        },
        "relationship": {
          "coding": [
            {
              "code": "SPS"
            }
          ]
        },
        "name": [
          {
            "family": "Last",
            "given": [
              "Spouse",
              "Middle"
            ],
            "suffix": [
              "Ph.D."
            ]
          }
        ]
      }
    },
    {
      "fullUrl": "urn:uuid:560d81b9-a1c3-4e2c-9ae8-7bdecbdba3fb",
      "resource": {
        "resourceType": "Observation",
        "id": "urn:uuid:560d81b9-a1c3-4e2c-9ae8-7bdecbdba3fb",
        "meta": {
          "profile": [
            "http://www.hl7.org/fhir/us/vrdr/StructureDefinition/VRDR-Decedent-Education-Level"
          ]
        },
        "status": "final",
        "code": {
          "coding": [
            {
              "system": "http://loinc.org",
              "code": "80913-7",
              "display": "Highest level of education"
            }
          ]
        },
        "subject": {
          "reference": "urn:uuid:11ef119d-6838-4e35-921c-1e54d24495a9"
        },
        "valueCodeableConcept": {
          "coding": [
            {
              "system": "http://hl7.org/fhir/v3/EducationLevel",
              "code": "BD",
              "display": "College or baccalaureate degree complete"
            }
          ]
        }
      }
    },
    {
      "fullUrl": "urn:uuid:5a26b139-482c-4d88-9a3e-b35830c5887b",
      "resource": {
        "resourceType": "Observation",
        "id": "urn:uuid:5a26b139-482c-4d88-9a3e-b35830c5887b",
        "meta": {
          "profile": [
            "http://www.hl7.org/fhir/us/vrdr/StructureDefinition/VRDR-Birth-Record-Identifier"
          ]
        },
        "status": "final",
        "code": {
          "coding": [
            {
              "code": "BR"
            }
          ]
        },
        "subject": {
          "reference": "urn:uuid:11ef119d-6838-4e35-921c-1e54d24495a9"
        },
        "valueString": "4242123"
      }
    },
    {
      "fullUrl": "urn:uuid:e4161cf5-41e1-430f-9f77-9d6f8654be77",
      "resource": {
        "resourceType": "Observation",
        "id": "urn:uuid:e4161cf5-41e1-430f-9f77-9d6f8654be77",
        "meta": {
          "profile": [
            "http://www.hl7.org/fhir/us/vrdr/StructureDefinition/VRDR-Decedent-Employment-History"
          ]
        },
        "status": "final",
        "code": {
          "coding": [
            {
              "system": "http://loinc.org",
              "code": "74165-2",
              "display": "History of employment status"
            }
          ]
        },
        "subject": {
          "reference": "urn:uuid:11ef119d-6838-4e35-921c-1e54d24495a9"
        },
        "component": [
          {
            "code": {
              "coding": [
                {
                  "system": "http://loinc.org",
                  "code": "21847-9",
                  "display": "Usual occupation"
                }
              ]
            },
            "valueCodeableConcept": {
              "coding": [
                {
                  "system": "http://hl7.org/fhir/ValueSet/occupation-cdc-census-2010",
                  "code": "1340",
                  "display": "Biomedical engineers"
                }
              ]
            }
          },
          {
            "code": {
              "coding": [
                {
                  "system": "http://loinc.org",
                  "code": "21844-6",
                  "display": "Usual industry"
                }
              ]
            },
            "valueCodeableConcept": {
              "coding": [
                {
                  "system": "http://www.hl7.org/fhir/ValueSet/industry-cdc-census-2010",
                  "code": "7280",
                  "display": "Accounting, tax preparation, bookkeeping, and payroll services"
                }
              ]
            }
          },
          {
            "code": {
              "coding": [
                {
                  "system": "http://loinc.org",
                  "code": "55280-2",
                  "display": "Military service"
                }
              ]
            },
            "valueCodeableConcept": {
              "coding": [
                {
                  "system": "http://www.hl7.org/fhir/ValueSet/v2-0532",
                  "code": "Y",
                  "display": "Yes"
                }
              ]
            }
          }
        ]
      }
    },
    {
      "fullUrl": "urn:uuid:4e4c1928-0d66-45b9-8c47-eff425d88c00",
      "resource": {
        "resourceType": "Observation",
        "id": "urn:uuid:4e4c1928-0d66-45b9-8c47-eff425d88c00",
        "meta": {
          "profile": [
            "http://www.hl7.org/fhir/us/vrdr/StructureDefinition/VRDR-Decedent-Disposition-Method"
          ]
        },
        "extension": [
          {
            "url": "http://www.hl7.org/fhir/us/vrdr/StructureDefinition/VRDR-Disposition-Location",
            "valueReference": {
              "reference": "urn:uuid:58e0e871-cd29-4271-9b52-6baa0e05b0fc"
            }
          }
        ],
        "status": "final",
        "code": {
          "coding": [
            {
              "system": "http://loinc.org",
              "code": "80905-3",
              "display": "Body disposition method"
            }
          ]
        },
        "subject": {
          "reference": "urn:uuid:11ef119d-6838-4e35-921c-1e54d24495a9"
        },
        "performer": [
          {
            "reference": "urn:uuid:fdf43f0b-1536-4fd7-ab14-83f256628fd5"
          }
        ],
        "valueCodeableConcept": {
          "coding": [
            {
              "system": "http://snomed.info/sct",
              "code": "449971000124106",
              "display": "Burial"
            }
          ]
        }
      }
    },
    {
      "fullUrl": "urn:uuid:c1b24749-5dbe-4d82-8e92-92ac9ef410b9",
      "resource": {
        "resourceType": "Observation",
        "id": "urn:uuid:c1b24749-5dbe-4d82-8e92-92ac9ef410b9",
        "meta": {
          "profile": [
            "http://www.hl7.org/fhir/us/vrdr/StructureDefinition/VRDR-Autopsy-Performed-Indicator"
          ]
        },
        "status": "final",
        "code": {
          "coding": [
            {
              "system": "http://loinc.org",
              "code": "85699-7",
              "display": "Autopsy was performed"
            }
          ]
        },
        "subject": {
          "reference": "urn:uuid:11ef119d-6838-4e35-921c-1e54d24495a9"
        },
        "valueCodeableConcept": {
          "coding": [
            {
              "system": "http://www.hl7.org/fhir/ValueSet/v2-0532",
              "code": "Y",
              "display": "Yes"
            }
          ]
        },
        "component": [
          {
            "code": {
              "coding": [
                {
                  "system": "http://loinc.org",
                  "code": "69436-4",
                  "display": "Autopsy results available"
                }
              ]
            },
            "valueCodeableConcept": {
              "coding": [
                {
                  "system": "http://www.hl7.org/fhir/ValueSet/v2-0532",
                  "code": "Y",
                  "display": "Yes"
                }
              ]
            }
          }
        ]
      }
    },
    {
      "fullUrl": "urn:uuid:fdc09339-8687-460a-9fcf-4f2338c22809",
      "resource": {
        "resourceType": "Observation",
        "id": "urn:uuid:fdc09339-8687-460a-9fcf-4f2338c22809",
        "meta": {
          "profile": [
            "http://www.hl7.org/fhir/us/vrdr/StructureDefinition/VRDR-Decedent-Age"
          ]
        },
        "status": "final",
        "code": {
          "coding": [
            {
              "system": "http://loinc.org",
              "code": "30525-0",
              "display": "Age"
            }
          ]
        },
        "subject": {
          "reference": "urn:uuid:11ef119d-6838-4e35-921c-1e54d24495a9"
        },
        "valueQuantity": {
          "value": 100,
          "unit": "a"
        }
      }
    },
    {
      "fullUrl": "urn:uuid:1c463fa4-dce3-4af2-b9d1-cdd39905445f",
      "resource": {
        "resourceType": "Observation",
        "id": "urn:uuid:1c463fa4-dce3-4af2-b9d1-cdd39905445f",
        "meta": {
          "profile": [
            "http://www.hl7.org/fhir/us/vrdr/StructureDefinition/VRDR-Decedent-Pregnancy"
          ]
        },
        "status": "final",
        "code": {
          "coding": [
            {
              "system": "http://loinc.org",
              "code": "69442-2",
              "display": "Timing of recent pregnancy in relation to death"
            }
          ]
        },
        "subject": {
          "reference": "urn:uuid:11ef119d-6838-4e35-921c-1e54d24495a9"
        },
        "valueCodeableConcept": {
          "coding": [
            {
              "system": "http://www.hl7.org/fhir/stu3/valueset-PregnancyStatusVS",
              "code": "PHC1260",
              "display": "Not pregnant within past year"
            }
          ]
        }
      }
    },
    {
      "fullUrl": "urn:uuid:89b02986-8797-44ea-b779-0a407495d6ae",
      "resource": {
        "resourceType": "Observation",
        "id": "urn:uuid:89b02986-8797-44ea-b779-0a407495d6ae",
        "meta": {
          "profile": [
            "http://www.hl7.org/fhir/us/vrdr/StructureDefinition/VRDR-Decedent-Transportation-Role"
          ]
        },
        "status": "final",
        "code": {
          "coding": [
            {
              "system": "http://loinc.org",
              "code": "69451-3",
              "display": "Transportation role of decedent"
            }
          ]
        },
        "subject": {
          "reference": "urn:uuid:11ef119d-6838-4e35-921c-1e54d24495a9"
        },
        "valueCodeableConcept": {
          "coding": [
            {
              "system": "http://www.hl7.org/fhir/stu3/valueset-TransportationRelationships",
              "code": "example-code",
              "display": "Example Code"
            }
          ]
        }
      }
    },
    {
      "fullUrl": "urn:uuid:232c6765-7149-484d-88f8-fb1d8605c03c",
      "resource": {
        "resourceType": "Observation",
        "id": "urn:uuid:232c6765-7149-484d-88f8-fb1d8605c03c",
        "meta": {
          "profile": [
            "http://www.hl7.org/fhir/us/vrdr/StructureDefinition/VRDR-Examiner-Contacted"
          ]
        },
        "status": "final",
        "code": {
          "coding": [
            {
              "system": "http://loinc.org",
              "code": "74497-9",
              "display": "Medical examiner or coroner was contacted"
            }
          ]
        },
        "subject": {
          "reference": "urn:uuid:11ef119d-6838-4e35-921c-1e54d24495a9"
        },
        "valueBoolean": false
      }
    },
    {
      "fullUrl": "urn:uuid:1b71bd58-a3c0-4e9d-8416-d2c02a53bcf7",
      "resource": {
        "resourceType": "Observation",
        "id": "urn:uuid:1b71bd58-a3c0-4e9d-8416-d2c02a53bcf7",
        "meta": {
          "profile": [
            "http://www.hl7.org/fhir/us/vrdr/StructureDefinition/VRDR-Tobacco-Use-Contributed-To-Death"
          ]
        },
        "status": "final",
        "code": {
          "coding": [
            {
              "system": "http://loinc.org",
              "code": "69443-0",
              "display": "Did tobacco use contribute to death"
            }
          ]
        },
        "subject": {
          "reference": "urn:uuid:11ef119d-6838-4e35-921c-1e54d24495a9"
        },
        "valueCodeableConcept": {
          "coding": [
            {
              "system": "http://www.hl7.org/fhir/ValueSet/v2-0532",
              "code": "Y",
              "display": "Yes"
            }
          ]
        }
      }
    },
    {
      "fullUrl": "urn:uuid:dc812f4c-b54c-4f5b-8838-6bd900336ac2",
      "resource": {
        "resourceType": "Location",
        "id": "urn:uuid:dc812f4c-b54c-4f5b-8838-6bd900336ac2",
        "meta": {
          "profile": [
            "http://www.hl7.org/fhir/us/vrdr/StructureDefinition/VRDR-Injury-Location"
          ]
        },
        "name": "Example Injury Location Name",
        "description": "Example Injury Location Description",
        "address": {
          "line": [
            "781 Example Street",
            "Line 2"
          ],
          "city": "Bedford",
          "district": "Middlesex",
          "state": "Massachusetts",
          "postalCode": "01730",
          "country": "United States"
        }
      }
    },
    {
      "fullUrl": "urn:uuid:ca7c2a07-68bb-4171-97c8-2a6cb5b0e4db",
      "resource": {
        "resourceType": "Observation",
        "id": "urn:uuid:ca7c2a07-68bb-4171-97c8-2a6cb5b0e4db",
        "meta": {
          "profile": [
            "http://www.hl7.org/fhir/us/vrdr/StructureDefinition/VRDR-Injury-Incident"
          ]
        },
        "status": "final",
        "code": {
          "coding": [
            {
              "system": "http://loinc.org",
              "code": "11374-6",
              "display": "Injury incident description"
            }
          ]
        },
        "subject": {
          "reference": "urn:uuid:11ef119d-6838-4e35-921c-1e54d24495a9"
        },
        "effectiveDateTime": "2018-02-19T16:48:06.498822-05:00"
      }
    },
    {
      "fullUrl": "urn:uuid:bb108c6a-307a-4ce1-aae9-b59b6bd6b401",
      "resource": {
        "resourceType": "Location",
        "id": "urn:uuid:bb108c6a-307a-4ce1-aae9-b59b6bd6b401",
        "meta": {
          "profile": [
            "http://www.hl7.org/fhir/us/vrdr/StructureDefinition/VRDR-Death-Location"
          ]
        },
        "name": "Example Death Location Name",
        "description": "Example Death Location Description",
        "address": {
          "line": [
            "671 Example Street",
            "Line 2"
          ],
          "city": "Bedford",
          "district": "Middlesex",
          "state": "Massachusetts",
          "postalCode": "01730",
          "country": "United States"
        }
      }
    },
    {
      "fullUrl": "urn:uuid:6784e92f-54b9-457a-bb26-ef371dfe7be9",
      "resource": {
        "resourceType": "Observation",
        "id": "urn:uuid:6784e92f-54b9-457a-bb26-ef371dfe7be9",
        "meta": {
          "profile": [
            "http://www.hl7.org/fhir/us/vrdr/StructureDefinition/VRDR-Death-Date"
          ]
        },
        "status": "final",
        "code": {
          "coding": [
            {
              "system": "http://loinc.org",
              "code": "81956-5",
              "display": "Date and time of death"
            }
          ]
        },
        "subject": {
          "reference": "urn:uuid:11ef119d-6838-4e35-921c-1e54d24495a9"
        },
        "effectiveDateTime": "2018-02-19T16:48:06.498822-05:00",
        "performer": [
          {
            "reference": "urn:uuid:b246458c-aaf7-4741-b96d-9d27d7a5efd0"
          }
        ],
        "component": [
          {
            "code": {
              "coding": [
                {
                  "system": "http://loinc.org",
                  "code": "80616-6",
                  "display": "Date and time pronounced dead"
                }
              ]
            },
            "valueDateTime": "2018-02-20T16:48:06.498822-05:00"
          }
        ]
      }
    }
  ]
}


