{
  "resourceType": "Bundle",
  "id": "34b87612-ca34-4796-948d-36dfbe95eec1",
  "meta": {
    "profile": [
      "http://hl7.org/fhir/us/vrdr/StructureDefinition/VRDR-Death-Certificate-Document"
    ]
  },
  "identifier": {
    "value": "42"
  },
  "type": "document",
  "entry": [
    {
      "fullUrl": "urn:uuid:8292e057-7f15-454f-82cb-92737ad11bcb",
      "resource": {
        "resourceType": "Composition",
        "id": "8292e057-7f15-454f-82cb-92737ad11bcb",
        "meta": {
          "profile": [
            "http://hl7.org/fhir/us/vrdr/StructureDefinition/VRDR-Death-Certificate"
          ]
        },
        "identifier": {
          "value": "1"
        },
        "status": "final",
        "type": {
          "coding": [
            {
              "system": "http://loinc.org",
              "code": "64297-5",
              "display": "Death certificate"
            }
          ]
        },
        "subject": {
          "reference": "urn:uuid:8c6c9b9a-3f10-4beb-b1be-65d24b8f6380"
        },
        "date": "2019-01-20T16:47:04.498822-05:00",
        "attester": [
          {
            "mode": [
              "legal"
            ],
            "time": "2019-01-29T16:48:06.498822-05:00",
            "party": {
              "reference": "urn:uuid:b6b925a9-18c2-4a17-8c67-17231cafaf68"
            }
          }
        ],
        "event": [
          {
            "code": [
              {
                "coding": [
                  {
                    "system": "http://snomed.info/sct",
                    "code": "103693007",
                    "display": "Diagnostic procedure"
                  }
                ]
              }
            ],
            "detail": [
              {
                "reference": "urn:uuid:10fe782c-fcc4-4d7f-836c-e2d389b95569"
              }
            ]
          }
        ],
        "section": [
          {
            "entry": [
              {
                "reference": "urn:uuid:8c6c9b9a-3f10-4beb-b1be-65d24b8f6380"
              },
              {
                "reference": "urn:uuid:b6b925a9-18c2-4a17-8c67-17231cafaf68"
              },
              {
                "reference": "urn:uuid:bf769ff3-a5fb-494d-a2a6-16064b2a5e89"
              },
              {
                "reference": "urn:uuid:10fe782c-fcc4-4d7f-836c-e2d389b95569"
              },
              {
                "reference": "urn:uuid:bf6db2f5-b59f-405f-9fb4-15d9f03bc64b"
              },
              {
                "reference": "urn:uuid:e73a539f-019b-4b2e-a6aa-30da156ce3ff"
              },
              {
                "reference": "urn:uuid:d15487fd-7b5f-43be-bb88-84a89219dbea"
              },
              {
                "reference": "urn:uuid:5a2d6edd-a08f-4d3a-abbe-93b26e50c8e4"
              },
              {
                "reference": "urn:uuid:88f43ea2-4037-4291-9605-2032f3a9e9fc"
              },
              {
                "reference": "urn:uuid:a907cbd4-06be-4374-9541-674b0eb11820"
              },
              {
                "reference": "urn:uuid:e5852a7e-3faa-403e-b56e-c2678e0e48ce"
              },
              {
                "reference": "urn:uuid:8a07c7bf-8d19-4523-add2-b71006bf7d14"
              },
              {
                "reference": "urn:uuid:3068b45c-42aa-4d6c-8864-1a4eb6450cbe"
              },
              {
                "reference": "urn:uuid:1813a699-36f2-4e9d-9f24-f26d084484fe"
              },
              {
                "reference": "urn:uuid:dc6cf7d9-bae6-4ab6-b186-90dbd4611c48"
              },
              {
                "reference": "urn:uuid:0aef8186-5a7b-4c69-91ed-262f993a5b18"
              },
              {
                "reference": "urn:uuid:66f6f8ba-0c91-43b2-b7c2-46dcf6374346"
              },
              {
                "reference": "urn:uuid:bc58f307-2da1-43d7-b3f7-80c4d3b4ab14"
              },
              {
                "reference": "urn:uuid:c38fd084-19a8-4e8f-ae44-23a57866f06a"
              },
              {
                "reference": "urn:uuid:2cce076e-9e48-4a70-af16-835fee4de344"
              },
              {
                "reference": "urn:uuid:53f87f79-5aea-4ef4-9169-1d9211a1070b"
              },
              {
                "reference": "urn:uuid:8aa63590-c561-4326-9cd6-944cf8e15873"
              },
              {
                "reference": "urn:uuid:f7e2dac8-fcab-4f49-99b7-3b3ac1972735"
              },
              {
                "reference": "urn:uuid:43c4dc84-541a-4776-8480-5ee5a787838c"
              },
              {
                "reference": "urn:uuid:37a006f2-a778-426e-9db8-968bb7923582"
              },
              {
                "reference": "urn:uuid:e03c88c3-6584-4368-a03d-1246cc92d91f"
              },
              {
                "reference": "urn:uuid:5ccdfeb4-fb8a-46fb-aedb-bcd084f0b198"
              },
              {
                "reference": "urn:uuid:2d489ef2-c0de-4864-ab23-56248cde283f"
              },
              {
                "reference": "urn:uuid:022eb21f-6c15-4454-a70f-6703a25fcac7"
              },
              {
                "reference": "urn:uuid:a740fddd-0386-4de9-ac4c-1cd16bdd77cb"
              },
              {
                "reference": "urn:uuid:b30cf6e0-de82-4da2-9b02-bcc763bbc664"
              },
              {
                "reference": "urn:uuid:1ce09c2f-c1bb-4171-9716-8673d9ef05a8"
              }
            ]
          }
        ]
      }
    },
    {
      "fullUrl": "urn:uuid:8c6c9b9a-3f10-4beb-b1be-65d24b8f6380",
      "resource": {
        "resourceType": "Patient",
        "id": "8c6c9b9a-3f10-4beb-b1be-65d24b8f6380",
        "meta": {
          "profile": [
            "http://hl7.org/fhir/us/vrdr/StructureDefinition/VRDR-Decedent"
          ]
        },
        "extension": [
          {
            "url": "http://hl7.org/fhir/us/core/StructureDefinition/us-core-birthsex",
            "valueCodeableConcept": {
              "coding": [
                {
                  "system": "http://hl7.org/fhir/us/core/ValueSet/us-core-birthsex",
                  "code": "M",
                  "display": "Male"
                }
              ]
            }
          },
          {
            "extension": [
              {
                "url": "ombCategory",
                "valueCoding": {
                  "system": "urn:oid:2.16.840.1.113883.6.238",
                  "code": "2135-2",
                  "display": "Hispanic or Latino"
                }
              },
              {
                "url": "detailed",
                "valueCoding": {
                  "system": "urn:oid:2.16.840.1.113883.6.238",
                  "code": "2180-8",
                  "display": "Puerto Rican"
                }
              },
              {
                "url": "text",
                "valueString": "Hispanic or Latino, Puerto Rican"
              }
            ],
            "url": "http://hl7.org/fhir/us/core/StructureDefinition/us-core-ethnicity"
          },
          {
            "extension": [
              {
                "url": "ombCategory",
                "valueCoding": {
                  "system": "urn:oid:2.16.840.1.113883.6.238",
                  "code": "2106-3",
                  "display": "White"
                }
              },
              {
                "url": "ombCategory",
                "valueCoding": {
                  "system": "urn:oid:2.16.840.1.113883.6.238",
                  "code": "2076-8",
                  "display": "Native Hawaiian or Other Pacific Islander"
                }
              },
              {
                "url": "detailed",
                "valueCoding": {
                  "system": "urn:oid:2.16.840.1.113883.6.238",
                  "code": "2079-2",
                  "display": "Native Hawaiian"
                }
              },
              {
                "url": "text",
                "valueString": "White, Native Hawaiian or Other Pacific Islander, Native Hawaiian"
              }
            ],
            "url": "http://hl7.org/fhir/us/core/StructureDefinition/us-core-race"
          },
          {
            "url": "http://hl7.org/fhir/StructureDefinition/birthPlace",
            "valueAddress": {
              "line": [
                "1011 Example Street",
                "Line 2"
              ],
              "city": "Bedford",
              "district": "Middlesex",
              "state": "Massachusetts",
              "postalCode": "01730",
              "country": "United States"
            }
          }
        ],
        "identifier": [
          {
            "type": {
              "coding": [
                {
                  "code": "BR",
                  "display": "Social Beneficiary Identifier"
                }
              ]
            },
            "system": "http://hl7.org/fhir/sid/us-ssn",
            "value": "123456789"
          }
        ],
        "name": [
          {
            "use": "official",
            "family": "Last",
            "given": [
              "Example",
              "Something",
              "Middle"
            ],
            "suffix": [
              "Jr."
            ]
          },
          {
            "use": "nickname",
            "family": "LastNameAlias",
            "given": [
              "FirstNameAlias",
              "MiddleAlias"
            ],
            "suffix": [
              "Jr."
            ]
          }
        ],
        "gender": "male",
        "birthDate": "1940-02-19T16:48:06.498822-05:00",
        "address": [
          {
            "line": [
              "101 Example Street",
              "Line 2"
            ],
            "city": "Bedford",
            "district": "Middlesex",
            "state": "Massachusetts",
            "postalCode": "01730",
            "country": "United States"
          }
        ],
        "maritalStatus": {
          "coding": [
            {
              "system": "http://hl7.org/fhir/v3/MaritalStatus",
              "code": "S",
              "display": "Never Married"
            }
          ]
        }
      }
    },
    {
      "fullUrl": "urn:uuid:b6b925a9-18c2-4a17-8c67-17231cafaf68",
      "resource": {
        "resourceType": "Practitioner",
        "id": "b6b925a9-18c2-4a17-8c67-17231cafaf68",
        "meta": {
          "profile": [
            "http://hl7.org/fhir/us/vrdr/StructureDefinition/VRDR-Certifier"
          ]
        },
        "name": [
          {
            "use": "official",
            "family": "Last",
            "given": [
              "Doctor",
              "Middle"
            ],
            "suffix": [
              "Jr."
            ]
          }
        ],
        "address": [
          {
            "line": [
              "11 Example Street",
              "Line 2"
            ],
            "city": "Bedford",
            "district": "Middlesex",
            "state": "Massachusetts",
            "postalCode": "01730",
            "country": "United States"
          }
        ],
        "qualification": [
          {
            "identifier": [
              {
                "value": "789123456"
              }
            ],
            "code": {
              "coding": [
                {
                  "system": "http://hl7.org/fhir/v2/0360/2.7",
                  "code": "MD",
                  "display": "Doctor of Medicine"
                }
              ]
            }
          }
        ]
      }
    },
    {
      "fullUrl": "urn:uuid:bf769ff3-a5fb-494d-a2a6-16064b2a5e89",
      "resource": {
        "resourceType": "Practitioner",
        "id": "bf769ff3-a5fb-494d-a2a6-16064b2a5e89",
        "meta": {
          "profile": [
            "http://hl7.org/fhir/us/vrdr/StructureDefinition/VRDR-Mortician"
          ]
        },
        "name": [
          {
            "use": "official",
            "family": "Last",
            "given": [
              "FD",
              "Middle"
            ],
            "suffix": [
              "Jr."
            ]
          }
        ],
        "qualification": [
          {
            "identifier": [
              {
                "value": "9876543210"
              }
            ]
          }
        ]
      }
    },
    {
      "fullUrl": "urn:uuid:10fe782c-fcc4-4d7f-836c-e2d389b95569",
      "resource": {
        "resourceType": "Procedure",
        "id": "10fe782c-fcc4-4d7f-836c-e2d389b95569",
        "meta": {
          "profile": [
            "http://hl7.org/fhir/us/vrdr/StructureDefinition/VRDR-Death-Certification"
          ]
        },
        "status": "completed",
        "category": {
          "coding": [
            {
              "system": "http://snomed.info/sct",
              "code": "103693007",
              "display": "Diagnostic procedure"
            }
          ]
        },
        "code": {
          "coding": [
            {
              "system": "http://snomed.info/sct",
              "code": "308646001",
              "display": "Death certification"
            }
          ]
        },
        "performedDateTime": "2019-01-29T16:48:06.498822-05:00",
        "performer": [
          {
            "role": {
              "coding": [
                {
                  "system": "http://snomed.info/sct",
                  "code": "309343006",
                  "display": "Physician"
                }
              ]
            },
            "actor": {
              "reference": "urn:uuid:b6b925a9-18c2-4a17-8c67-17231cafaf68"
            }
          }
        ]
      }
    },
    {
      "fullUrl": "urn:uuid:bf6db2f5-b59f-405f-9fb4-15d9f03bc64b",
      "resource": {
        "resourceType": "Organization",
        "id": "bf6db2f5-b59f-405f-9fb4-15d9f03bc64b",
        "meta": {
          "profile": [
            "http://hl7.org/fhir/us/vrdr/StructureDefinition/VRDR-Interested-Party"
          ]
        },
        "identifier": [
          {
            "value": "1010101"
          }
        ],
        "active": true,
        "type": [
          {
            "coding": [
              {
                "system": "http://terminology.hl7.org/CodeSystem/organization-type",
                "code": "prov",
                "display": "Healthcare Provider"
              }
            ]
          }
        ],
        "name": "Example Hospital",
        "address": [
          {
            "line": [
              "10 Example Street",
              "Line 2"
            ],
            "city": "Bedford",
            "district": "Middlesex",
            "state": "Massachusetts",
            "postalCode": "01730",
            "country": "United States"
          }
        ]
      }
    },
    {
      "fullUrl": "urn:uuid:e73a539f-019b-4b2e-a6aa-30da156ce3ff",
      "resource": {
        "resourceType": "Organization",
        "id": "e73a539f-019b-4b2e-a6aa-30da156ce3ff",
        "meta": {
          "profile": [
            "http://hl7.org/fhir/us/vrdr/StructureDefinition/VRDR-Funeral-Home"
          ]
        },
        "type": [
          {
            "coding": [
              {
                "code": "bus",
                "display": "Non-Healthcare Business or Corporation"
              }
            ]
          }
        ],
        "name": "Smith Funeral Home",
        "address": [
          {
            "line": [
              "1011010 Example Street",
              "Line 2"
            ],
            "city": "Bedford",
            "district": "Middlesex",
            "state": "Massachusetts",
            "postalCode": "01730",
            "country": "United States"
          }
        ]
      }
    },
    {
      "fullUrl": "urn:uuid:d15487fd-7b5f-43be-bb88-84a89219dbea",
      "resource": {
        "resourceType": "PractitionerRole",
        "id": "d15487fd-7b5f-43be-bb88-84a89219dbea",
        "meta": {
          "profile": [
            "http://hl7.org/fhir/us/vrdr/StructureDefinition/VRDR-Funeral-Home-Director"
          ]
        },
        "practitioner": {
          "reference": "urn:uuid:bf769ff3-a5fb-494d-a2a6-16064b2a5e89"
        },
        "organization": {
          "reference": "urn:uuid:e73a539f-019b-4b2e-a6aa-30da156ce3ff"
        }
      }
    },
    {
      "fullUrl": "urn:uuid:5a2d6edd-a08f-4d3a-abbe-93b26e50c8e4",
      "resource": {
        "resourceType": "List",
        "id": "5a2d6edd-a08f-4d3a-abbe-93b26e50c8e4",
        "meta": {
          "profile": [
            "http://hl7.org/fhir/us/vrdr/StructureDefinition/VRDR-Cause-of-Death-Pathway"
          ]
        },
        "status": "current",
        "mode": "snapshot",
        "source": {
          "reference": "urn:uuid:b6b925a9-18c2-4a17-8c67-17231cafaf68"
        },
        "orderedBy": {
          "coding": [
            {
              "code": "priority"
            }
          ]
        },
        "entry": [
          {
            "item": {
              "reference": "urn:uuid:8a07c7bf-8d19-4523-add2-b71006bf7d14"
            }
          },
          {
            "item": {
              "reference": "urn:uuid:3068b45c-42aa-4d6c-8864-1a4eb6450cbe"
            }
          },
          {
            "item": {
              "reference": "urn:uuid:1813a699-36f2-4e9d-9f24-f26d084484fe"
            }
          },
          {
            "item": {
              "reference": "urn:uuid:dc6cf7d9-bae6-4ab6-b186-90dbd4611c48"
            }
          }
        ]
      }
    },
    {
      "fullUrl": "88f43ea2-4037-4291-9605-2032f3a9e9fc",
      "resource": {
        "resourceType": "Location",
        "id": "88f43ea2-4037-4291-9605-2032f3a9e9fc",
        "meta": {
          "profile": [
            "http://hl7.org/fhir/us/vrdr/StructureDefinition/VRDR-Disposition-Location"
          ]
        },
        "name": "Bedford Cemetery",
        "address": {
          "line": [
            "603 Example Street",
            "Line 2"
          ],
          "city": "Bedford",
          "district": "Middlesex",
          "state": "Massachusetts",
          "postalCode": "01730",
          "country": "United States"
        }
      }
    },
    {
      "fullUrl": "urn:uuid:a907cbd4-06be-4374-9541-674b0eb11820",
      "resource": {
        "resourceType": "Observation",
        "id": "a907cbd4-06be-4374-9541-674b0eb11820",
        "meta": {
          "profile": [
            "http://hl7.org/fhir/us/vrdr/StructureDefinition/VRDR-Manner-of-Death"
          ]
        },
        "status": "final",
        "code": {
          "coding": [
            {
              "system": "http://loinc.org",
              "code": "69449-7",
              "display": "Manner of death"
            }
          ]
        },
        "subject": {
          "reference": "urn:uuid:8c6c9b9a-3f10-4beb-b1be-65d24b8f6380"
        },
        "performer": [
          {
            "reference": "urn:uuid:b6b925a9-18c2-4a17-8c67-17231cafaf68"
          }
        ],
        "valueCodeableConcept": {
          "coding": [
            {
              "code": "7878000",
              "display": "Accident"
            }
          ]
        }
      }
    },
    {
      "fullUrl": "urn:uuid:e5852a7e-3faa-403e-b56e-c2678e0e48ce",
      "resource": {
        "resourceType": "Condition",
        "id": "e5852a7e-3faa-403e-b56e-c2678e0e48ce",
        "meta": {
          "profile": [
            "http://hl7.org/fhir/us/vrdr/StructureDefinition/VRDR-Condition-Contributing-To-Death"
          ]
        },
        "code": {
          "text": "Example Contributing Conditions"
        },
        "subject": {
          "reference": "urn:uuid:8c6c9b9a-3f10-4beb-b1be-65d24b8f6380"
        }
      }
    },
    {
      "fullUrl": "urn:uuid:8a07c7bf-8d19-4523-add2-b71006bf7d14",
      "resource": {
        "resourceType": "Condition",
        "id": "8a07c7bf-8d19-4523-add2-b71006bf7d14",
        "meta": {
          "profile": [
            "http://hl7.org/fhir/us/vrdr/StructureDefinition/VRDR-Cause-Of-Death-Condition"
          ]
        },
        "code": {
          "coding": [
            {
              "system": "http://hl7.org/fhir/sid/icd-10",
              "code": "I21.0",
              "display": "Acute transmural myocardial infarction of anterior wall"
            }
          ],
          "text": "Rupture of myocardium"
        },
        "subject": {
          "reference": "urn:uuid:8c6c9b9a-3f10-4beb-b1be-65d24b8f6380"
        },
        "onsetString": "minutes",
        "asserter": {
          "reference": "urn:uuid:b6b925a9-18c2-4a17-8c67-17231cafaf68"
        }
      }
    },
    {
      "fullUrl": "urn:uuid:3068b45c-42aa-4d6c-8864-1a4eb6450cbe",
      "resource": {
        "resourceType": "Condition",
        "id": "3068b45c-42aa-4d6c-8864-1a4eb6450cbe",
        "meta": {
          "profile": [
            "http://hl7.org/fhir/us/vrdr/StructureDefinition/VRDR-Cause-Of-Death-Condition"
          ]
        },
        "code": {
          "coding": [
            {
              "system": "http://hl7.org/fhir/sid/icd-10",
              "code": "I21.9",
              "display": "Acute myocardial infarction, unspecified"
            }
          ],
          "text": "Acute myocardial infarction"
        },
        "subject": {
          "reference": "urn:uuid:8c6c9b9a-3f10-4beb-b1be-65d24b8f6380"
        },
        "onsetString": "6 days",
        "asserter": {
          "reference": "urn:uuid:b6b925a9-18c2-4a17-8c67-17231cafaf68"
        }
      }
    },
    {
      "fullUrl": "urn:uuid:1813a699-36f2-4e9d-9f24-f26d084484fe",
      "resource": {
        "resourceType": "Condition",
        "id": "1813a699-36f2-4e9d-9f24-f26d084484fe",
        "meta": {
          "profile": [
            "http://hl7.org/fhir/us/vrdr/StructureDefinition/VRDR-Cause-Of-Death-Condition"
          ]
        },
        "code": {
          "text": "Coronary artery thrombosis"
        },
        "subject": {
          "reference": "urn:uuid:8c6c9b9a-3f10-4beb-b1be-65d24b8f6380"
        },
        "onsetString": "5 years",
        "asserter": {
          "reference": "urn:uuid:b6b925a9-18c2-4a17-8c67-17231cafaf68"
        }
      }
    },
    {
      "fullUrl": "urn:uuid:dc6cf7d9-bae6-4ab6-b186-90dbd4611c48",
      "resource": {
        "resourceType": "Condition",
        "id": "dc6cf7d9-bae6-4ab6-b186-90dbd4611c48",
        "meta": {
          "profile": [
            "http://hl7.org/fhir/us/vrdr/StructureDefinition/VRDR-Cause-Of-Death-Condition"
          ]
        },
        "code": {
          "text": "Atherosclerotic coronary artery disease"
        },
        "subject": {
          "reference": "urn:uuid:8c6c9b9a-3f10-4beb-b1be-65d24b8f6380"
        },
        "onsetString": "7 years",
        "asserter": {
          "reference": "urn:uuid:b6b925a9-18c2-4a17-8c67-17231cafaf68"
        }
      }
    },
    {
      "fullUrl": "urn:uuid:0aef8186-5a7b-4c69-91ed-262f993a5b18",
      "resource": {
        "resourceType": "RelatedPerson",
        "id": "0aef8186-5a7b-4c69-91ed-262f993a5b18",
        "meta": {
          "profile": [
            "http://hl7.org/fhir/us/vrdr/StructureDefinition/VRDR-Decedent-Father"
          ]
        },
        "patient": {
          "reference": "urn:uuid:8c6c9b9a-3f10-4beb-b1be-65d24b8f6380"
        },
        "relationship": {
          "coding": [
            {
              "code": "FTH"
            }
          ]
        },
        "name": [
          {
            "family": "Last",
            "given": [
              "Father",
              "Middle"
            ],
            "suffix": [
              "Sr."
            ]
          }
        ]
      }
    },
    {
      "fullUrl": "urn:uuid:66f6f8ba-0c91-43b2-b7c2-46dcf6374346",
      "resource": {
        "resourceType": "RelatedPerson",
        "id": "66f6f8ba-0c91-43b2-b7c2-46dcf6374346",
        "meta": {
          "profile": [
            "http://hl7.org/fhir/us/vrdr/StructureDefinition/VRDR-Decedent-Mother"
          ]
        },
        "patient": {
          "reference": "urn:uuid:8c6c9b9a-3f10-4beb-b1be-65d24b8f6380"
        },
        "relationship": {
          "coding": [
            {
              "code": "MTH"
            }
          ]
        },
        "name": [
          {
            "family": "Maiden",
            "given": [
              "Mother",
              "Middle"
            ],
            "suffix": [
              "Dr."
            ]
          }
        ]
      }
    },
    {
      "fullUrl": "urn:uuid:bc58f307-2da1-43d7-b3f7-80c4d3b4ab14",
      "resource": {
        "resourceType": "RelatedPerson",
        "id": "bc58f307-2da1-43d7-b3f7-80c4d3b4ab14",
        "meta": {
          "profile": [
            "http://hl7.org/fhir/us/vrdr/StructureDefinition/VRDR-Decedent-Spouse"
          ]
        },
        "patient": {
          "reference": "urn:uuid:8c6c9b9a-3f10-4beb-b1be-65d24b8f6380"
        },
        "relationship": {
          "coding": [
            {
              "code": "SPS"
            }
          ]
        },
        "name": [
          {
            "family": "Last",
            "given": [
              "Spouse",
              "Middle"
            ],
            "suffix": [
              "Ph.D."
            ]
          }
        ]
      }
    },
    {
      "fullUrl": "urn:uuid:c38fd084-19a8-4e8f-ae44-23a57866f06a",
      "resource": {
        "resourceType": "Observation",
        "id": "c38fd084-19a8-4e8f-ae44-23a57866f06a",
        "meta": {
          "profile": [
            "http://hl7.org/fhir/us/vrdr/StructureDefinition/VRDR-Decedent-Education-Level"
          ]
        },
        "status": "final",
        "code": {
          "coding": [
            {
              "system": "http://loinc.org",
              "code": "80913-7",
              "display": "Highest level of education"
            }
          ]
        },
        "subject": {
          "reference": "urn:uuid:8c6c9b9a-3f10-4beb-b1be-65d24b8f6380"
        },
        "valueCodeableConcept": {
          "coding": [
            {
              "system": "http://hl7.org/fhir/v3/EducationLevel",
              "code": "BD",
              "display": "College or baccalaureate degree complete"
            }
          ]
        }
      }
    },
    {
      "fullUrl": "urn:uuid:2cce076e-9e48-4a70-af16-835fee4de344",
      "resource": {
        "resourceType": "Observation",
        "id": "2cce076e-9e48-4a70-af16-835fee4de344",
        "meta": {
          "profile": [
            "http://hl7.org/fhir/us/vrdr/StructureDefinition/VRDR-Birth-Record-Identifier"
          ]
        },
        "status": "final",
        "code": {
          "coding": [
            {
              "code": "BR"
            }
          ]
        },
        "subject": {
          "reference": "urn:uuid:8c6c9b9a-3f10-4beb-b1be-65d24b8f6380"
        },
        "valueString": "4242123"
      }
    },
    {
      "fullUrl": "urn:uuid:53f87f79-5aea-4ef4-9169-1d9211a1070b",
      "resource": {
        "resourceType": "Observation",
        "id": "53f87f79-5aea-4ef4-9169-1d9211a1070b",
        "meta": {
          "profile": [
            "http://hl7.org/fhir/us/vrdr/StructureDefinition/VRDR-Decedent-Employment-History"
          ]
        },
        "status": "final",
        "code": {
          "coding": [
            {
              "system": "http://loinc.org",
              "code": "74165-2",
              "display": "History of employment status"
            }
          ]
        },
        "subject": {
          "reference": "urn:uuid:8c6c9b9a-3f10-4beb-b1be-65d24b8f6380"
        },
        "component": [
          {
            "code": {
              "coding": [
                {
                  "system": "http://loinc.org",
                  "code": "21847-9",
                  "display": "Usual occupation"
                }
              ]
            },
            "valueCodeableConcept": {
              "coding": [
                {
                  "system": "http://hl7.org/fhir/ValueSet/occupation-cdc-census-2010",
                  "code": "1340",
                  "display": "Biomedical engineers"
                }
              ]
            }
          },
          {
            "code": {
              "coding": [
                {
                  "system": "http://loinc.org",
                  "code": "21844-6",
                  "display": "Usual industry"
                }
              ]
            },
            "valueCodeableConcept": {
              "coding": [
                {
                  "system": "http://hl7.org/fhir/ValueSet/industry-cdc-census-2010",
                  "code": "7280",
                  "display": "Accounting, tax preparation, bookkeeping, and payroll services"
                }
              ]
            }
          },
          {
            "code": {
              "coding": [
                {
                  "system": "http://loinc.org",
                  "code": "55280-2",
                  "display": "Military service"
                }
              ]
            },
            "valueCodeableConcept": {
              "coding": [
                {
                  "system": "http://hl7.org/fhir/ValueSet/v2-0532",
                  "code": "Y",
                  "display": "Yes"
                }
              ]
            }
          }
        ]
      }
    },
    {
      "fullUrl": "urn:uuid:8aa63590-c561-4326-9cd6-944cf8e15873",
      "resource": {
        "resourceType": "Observation",
        "id": "8aa63590-c561-4326-9cd6-944cf8e15873",
        "meta": {
          "profile": [
            "http://hl7.org/fhir/us/vrdr/StructureDefinition/VRDR-Decedent-Disposition-Method"
          ]
        },
        "extension": [
          {
            "url": "http://hl7.org/fhir/us/vrdr/StructureDefinition/VRDR-Disposition-Location",
            "valueReference": {
              "reference": "urn:uuid:88f43ea2-4037-4291-9605-2032f3a9e9fc"
            }
          }
        ],
        "status": "final",
        "code": {
          "coding": [
            {
              "system": "http://loinc.org",
              "code": "80905-3",
              "display": "Body disposition method"
            }
          ]
        },
        "subject": {
          "reference": "urn:uuid:8c6c9b9a-3f10-4beb-b1be-65d24b8f6380"
        },
        "performer": [
          {
            "reference": "urn:uuid:bf769ff3-a5fb-494d-a2a6-16064b2a5e89"
          }
        ],
        "valueCodeableConcept": {
          "coding": [
            {
              "system": "http://snomed.info/sct",
              "code": "449971000124106",
              "display": "Burial"
            }
          ]
        }
      }
    },
    {
      "fullUrl": "urn:uuid:f7e2dac8-fcab-4f49-99b7-3b3ac1972735",
      "resource": {
        "resourceType": "Observation",
        "id": "f7e2dac8-fcab-4f49-99b7-3b3ac1972735",
        "meta": {
          "profile": [
            "http://hl7.org/fhir/us/vrdr/StructureDefinition/VRDR-Autopsy-Performed-Indicator"
          ]
        },
        "status": "final",
        "code": {
          "coding": [
            {
              "system": "http://loinc.org",
              "code": "85699-7",
              "display": "Autopsy was performed"
            }
          ]
        },
        "subject": {
          "reference": "urn:uuid:8c6c9b9a-3f10-4beb-b1be-65d24b8f6380"
        },
        "valueCodeableConcept": {
          "coding": [
            {
              "system": "http://hl7.org/fhir/ValueSet/v2-0532",
              "code": "Y",
              "display": "Yes"
            }
          ]
        },
        "component": [
          {
            "code": {
              "coding": [
                {
                  "system": "http://loinc.org",
                  "code": "69436-4",
                  "display": "Autopsy results available"
                }
              ]
            },
            "valueCodeableConcept": {
              "coding": [
                {
                  "system": "http://hl7.org/fhir/ValueSet/v2-0532",
                  "code": "Y",
                  "display": "Yes"
                }
              ]
            }
          }
        ]
      }
    },
    {
      "fullUrl": "urn:uuid:43c4dc84-541a-4776-8480-5ee5a787838c",
      "resource": {
        "resourceType": "Observation",
        "id": "43c4dc84-541a-4776-8480-5ee5a787838c",
        "meta": {
          "profile": [
            "http://hl7.org/fhir/us/vrdr/StructureDefinition/VRDR-Decedent-Age"
          ]
        },
        "status": "final",
        "code": {
          "coding": [
            {
              "system": "http://loinc.org",
              "code": "30525-0",
              "display": "Age"
            }
          ]
        },
        "subject": {
          "reference": "urn:uuid:8c6c9b9a-3f10-4beb-b1be-65d24b8f6380"
        },
        "valueQuantity": {
          "value": 79,
          "unit": "a"
        }
      }
    },
    {
      "fullUrl": "urn:uuid:37a006f2-a778-426e-9db8-968bb7923582",
      "resource": {
        "resourceType": "Observation",
        "id": "37a006f2-a778-426e-9db8-968bb7923582",
        "meta": {
          "profile": [
            "http://hl7.org/fhir/us/vrdr/StructureDefinition/VRDR-Decedent-Pregnancy"
          ]
        },
        "status": "final",
        "code": {
          "coding": [
            {
              "system": "http://loinc.org",
              "code": "69442-2",
              "display": "Timing of recent pregnancy in relation to death"
            }
          ]
        },
        "subject": {
          "reference": "urn:uuid:8c6c9b9a-3f10-4beb-b1be-65d24b8f6380"
        },
        "valueCodeableConcept": {
          "coding": [
            {
              "system": "http://hl7.org/fhir/stu3/valueset-PregnancyStatusVS",
              "code": "NA",
              "display": "not applicable"
            }
          ]
        }
      }
    },
    {
      "fullUrl": "urn:uuid:e03c88c3-6584-4368-a03d-1246cc92d91f",
      "resource": {
        "resourceType": "Observation",
        "id": "e03c88c3-6584-4368-a03d-1246cc92d91f",
        "meta": {
          "profile": [
            "http://hl7.org/fhir/us/vrdr/StructureDefinition/VRDR-Decedent-Transportation-Role"
          ]
        },
        "status": "final",
        "code": {
          "coding": [
            {
              "system": "http://loinc.org",
              "code": "69451-3",
              "display": "Transportation role of decedent"
            }
          ]
        },
        "subject": {
          "reference": "urn:uuid:8c6c9b9a-3f10-4beb-b1be-65d24b8f6380"
        },
        "valueCodeableConcept": {
          "coding": [
            {
              "system": "http://hl7.org/fhir/stu3/valueset-TransportationRelationships",
              "code": "example-code",
              "display": "Example Code"
            }
          ]
        }
      }
    },
    {
      "fullUrl": "urn:uuid:5ccdfeb4-fb8a-46fb-aedb-bcd084f0b198",
      "resource": {
        "resourceType": "Observation",
        "id": "5ccdfeb4-fb8a-46fb-aedb-bcd084f0b198",
        "meta": {
          "profile": [
            "http://hl7.org/fhir/us/vrdr/StructureDefinition/VRDR-Examiner-Contacted"
          ]
        },
        "status": "final",
        "code": {
          "coding": [
            {
              "system": "http://loinc.org",
              "code": "74497-9",
              "display": "Medical examiner or coroner was contacted"
            }
          ]
        },
        "subject": {
          "reference": "urn:uuid:8c6c9b9a-3f10-4beb-b1be-65d24b8f6380"
        },
        "valueBoolean": false
      }
    },
    {
      "fullUrl": "urn:uuid:2d489ef2-c0de-4864-ab23-56248cde283f",
      "resource": {
        "resourceType": "Observation",
        "id": "2d489ef2-c0de-4864-ab23-56248cde283f",
        "meta": {
          "profile": [
            "http://hl7.org/fhir/us/vrdr/StructureDefinition/VRDR-Tobacco-Use-Contributed-To-Death"
          ]
        },
        "status": "final",
        "code": {
          "coding": [
            {
              "system": "http://loinc.org",
              "code": "69443-0",
              "display": "Did tobacco use contribute to death"
            }
          ]
        },
        "subject": {
          "reference": "urn:uuid:8c6c9b9a-3f10-4beb-b1be-65d24b8f6380"
        },
        "valueCodeableConcept": {
          "coding": [
            {
              "system": "http://hl7.org/fhir/ValueSet/v2-0532",
              "code": "Y",
              "display": "Yes"
            }
          ]
        }
      }
    },
    {
      "fullUrl": "urn:uuid:022eb21f-6c15-4454-a70f-6703a25fcac7",
      "resource": {
        "resourceType": "Location",
        "id": "022eb21f-6c15-4454-a70f-6703a25fcac7",
        "meta": {
          "profile": [
            "http://hl7.org/fhir/us/vrdr/StructureDefinition/VRDR-Injury-Location"
          ]
        },
        "name": "Example Injury Location Name",
        "description": "Example Injury Location Description",
        "address": {
          "line": [
            "781 Example Street",
            "Line 2"
          ],
          "city": "Bedford",
          "district": "Middlesex",
          "state": "Massachusetts",
          "postalCode": "01730",
          "country": "United States"
        }
      }
    },
    {
      "fullUrl": "urn:uuid:a740fddd-0386-4de9-ac4c-1cd16bdd77cb",
      "resource": {
        "resourceType": "Observation",
        "id": "a740fddd-0386-4de9-ac4c-1cd16bdd77cb",
        "meta": {
          "profile": [
            "http://hl7.org/fhir/us/vrdr/StructureDefinition/VRDR-Injury-Incident"
          ]
        },
        "status": "final",
        "code": {
          "coding": [
            {
              "system": "http://loinc.org",
              "code": "11374-6",
              "display": "Injury incident description"
            }
          ]
        },
        "subject": {
          "reference": "urn:uuid:8c6c9b9a-3f10-4beb-b1be-65d24b8f6380"
        },
        "effectiveDateTime": "2018-02-19T16:48:06.498822-05:00"
      }
    },
    {
      "fullUrl": "urn:uuid:b30cf6e0-de82-4da2-9b02-bcc763bbc664",
      "resource": {
        "resourceType": "Location",
        "id": "b30cf6e0-de82-4da2-9b02-bcc763bbc664",
        "meta": {
          "profile": [
            "http://hl7.org/fhir/us/vrdr/StructureDefinition/VRDR-Death-Location"
          ]
        },
        "name": "Example Death Location Name",
        "description": "Example Death Location Description",
        "address": {
          "line": [
            "671 Example Street",
            "Line 2"
          ],
          "city": "Bedford",
          "district": "Middlesex",
          "state": "Massachusetts",
          "postalCode": "01730",
          "country": "United States"
        }
      }
    },
    {
      "fullUrl": "urn:uuid:1ce09c2f-c1bb-4171-9716-8673d9ef05a8",
      "resource": {
        "resourceType": "Observation",
        "id": "1ce09c2f-c1bb-4171-9716-8673d9ef05a8",
        "meta": {
          "profile": [
            "http://hl7.org/fhir/us/vrdr/StructureDefinition/VRDR-Death-Date"
          ]
        },
        "status": "final",
        "code": {
          "coding": [
            {
              "system": "http://loinc.org",
              "code": "81956-5",
              "display": "Date and time of death"
            }
          ]
        },
        "subject": {
          "reference": "urn:uuid:8c6c9b9a-3f10-4beb-b1be-65d24b8f6380"
        },
        "effectiveDateTime": "2018-02-19T16:48:06.498822-05:00",
        "performer": [
          {
            "reference": "urn:uuid:b6b925a9-18c2-4a17-8c67-17231cafaf68"
          }
        ],
        "component": [
          {
            "code": {
              "coding": [
                {
                  "system": "http://loinc.org",
                  "code": "80616-6",
                  "display": "Date and time pronounced dead"
                }
              ]
            },
            "valueDateTime": "2018-02-20T16:48:06.498822-05:00"
          }
        ]
      }
    }
  ]
}


