{
  "resourceType": "Bundle",
  "id": "urn:uuid:63eaa04b-f60e-461f-a8bb-b8c558eb2a7b",
  "meta": {
    "profile": [
      "http://www.hl7.org/fhir/us/vrdr/StructureDefinition/VRDR-Death-Certificate-Document"
    ]
  },
  "identifier": {
    "value": "42"
  },
  "type": "document",
  "entry": [
    {
      "fullUrl": "urn:uuid:d2fcdfbd-3494-42b4-a140-2827a24a47ae",
      "resource": {
        "resourceType": "Composition",
        "id": "urn:uuid:d2fcdfbd-3494-42b4-a140-2827a24a47ae",
        "meta": {
          "profile": [
            "http://www.hl7.org/fhir/us/vrdr/StructureDefinition/VRDR-Death-Certificate"
          ]
        },
        "identifier": {
          "value": "1"
        },
        "status": "final",
        "type": {
          "coding": [
            {
              "system": "http://loinc.org",
              "code": "64297-5",
              "display": "Death certificate"
            }
          ]
        },
        "subject": {
          "reference": "urn:uuid:52ddf5c3-bd68-4d02-8c67-c004aad833a8"
        },
        "date": "2019-01-20T16:47:04.498822-05:00",
        "attester": [
          {
            "mode": [
              "legal"
            ],
            "time": "2019-01-29T16:48:06.498822-05:00",
            "party": {
              "reference": "urn:uuid:01f8a847-96c6-44ce-8f30-278d9a1b755f"
            }
          }
        ],
        "event": [
          {
            "code": [
              {
                "coding": [
                  {
                    "system": "http://snomed.info/sct",
                    "code": "103693007",
                    "display": "Diagnostic procedure"
                  }
                ]
              }
            ],
            "detail": [
              {
                "reference": "urn:uuid:83c00be4-3eb7-455d-80cf-d767d5b7fd04"
              }
            ]
          }
        ],
        "section": [
          {
            "entry": [
              {
                "reference": "urn:uuid:52ddf5c3-bd68-4d02-8c67-c004aad833a8"
              },
              {
                "reference": "urn:uuid:01f8a847-96c6-44ce-8f30-278d9a1b755f"
              },
              {
                "reference": "urn:uuid:c97cef68-178c-4636-8f83-2bd1bc988b61"
              },
              {
                "reference": "urn:uuid:83c00be4-3eb7-455d-80cf-d767d5b7fd04"
              },
              {
                "reference": "urn:uuid:03d104a5-ea62-4087-af82-cf9cc1a12244"
              },
              {
                "reference": "urn:uuid:adce8a8d-ff16-4b6c-8525-5671d3348313"
              },
              {
                "reference": "urn:uuid:d0e85418-8d35-4de3-87ee-16737d9d5295"
              },
              {
                "reference": "urn:uuid:03756adc-5f1c-4e90-b3fd-f965a313dce6"
              },
              {
                "reference": "urn:uuid:4f565c50-ae62-44af-be31-59eb5d6c531b"
              },
              {
                "reference": "urn:uuid:bb213c59-3ea4-42b0-85a9-f38f4e7e6109"
              },
              {
                "reference": "urn:uuid:c8a9fb38-2b6a-4974-83e6-eb5b7f79a547"
              },
              {
                "reference": "urn:uuid:a35f9eee-b4f2-4cfc-9834-553055bbb6c2"
              },
              {
                "reference": "urn:uuid:c7b0d5f5-609a-4f89-8f23-cb33d37ae65a"
              },
              {
                "reference": "urn:uuid:c5e23307-e541-49f5-943d-d0a3c82cdd29"
              },
              {
                "reference": "urn:uuid:40b288f1-4c32-4bc9-bce6-396354edfa65"
              },
              {
                "reference": "urn:uuid:ae52d16b-14c5-46b1-8100-2353731a6cdc"
              },
              {
                "reference": "urn:uuid:17e06964-e4bc-4909-a956-afad4e0b7820"
              },
              {
                "reference": "urn:uuid:5b929ad0-1626-4b2b-88b9-ccfbd94a74b4"
              },
              {
                "reference": "urn:uuid:6eebaaa7-2408-4664-b63d-b3083e97d932"
              },
              {
                "reference": "urn:uuid:a0590dab-cb92-4b05-ab57-4d7fc28b8201"
              },
              {
                "reference": "urn:uuid:f2bc2de8-cb7d-40b7-b77b-0537da711d0e"
              },
              {
                "reference": "urn:uuid:d9b487d8-21de-4085-b9e9-4b9376dda749"
              },
              {
                "reference": "urn:uuid:8a85dab4-0743-439e-bacf-5fdd34122895"
              },
              {
                "reference": "urn:uuid:24f3cb0a-d833-4d11-aacc-039f6e3a7c35"
              },
              {
                "reference": "urn:uuid:3490104b-b1e2-44bc-bfb8-ffb74097df6d"
              },
              {
                "reference": "urn:uuid:d111817b-b8f3-4b18-80e0-2fb6bcc52e20"
              },
              {
                "reference": "urn:uuid:9be3384d-7b87-4d8d-92b1-9b1f12976fa1"
              },
              {
                "reference": "urn:uuid:60687ff4-5fe5-4e4d-b6cd-2d2015adf0a2"
              },
              {
                "reference": "urn:uuid:0d73f473-d4fd-480d-a736-4b3443b40b69"
              },
              {
                "reference": "urn:uuid:785d0e7e-a582-4f0f-96ac-da1d317ad436"
              },
              {
                "reference": "urn:uuid:2f09577e-a7a3-46a1-ad14-dc66efe8f03c"
              },
              {
                "reference": "urn:uuid:7fd1dd23-5c61-4d31-8180-3d5715e280ed"
              }
            ]
          }
        ]
      }
    },
    {
      "fullUrl": "urn:uuid:52ddf5c3-bd68-4d02-8c67-c004aad833a8",
      "resource": {
        "resourceType": "Patient",
        "id": "urn:uuid:52ddf5c3-bd68-4d02-8c67-c004aad833a8",
        "meta": {
          "profile": [
            "http://www.hl7.org/fhir/us/vrdr/StructureDefinition/VRDR-Decedent"
          ]
        },
        "extension": [
          {
            "url": "http://hl7.org/fhir/us/core/StructureDefinition/us-core-birthsex",
            "valueCodeableConcept": {
              "coding": [
                {
                  "system": "http://hl7.org/fhir/us/core/ValueSet/us-core-birthsex",
                  "code": "M",
                  "display": "Male"
                }
              ]
            }
          },
          {
            "extension": [
              {
                "url": "text",
                "valueString": "Hispanic or Latino"
              },
              {
                "url": "ombCategory",
                "valueCoding": {
                  "system": "urn:oid:2.16.840.1.113883.6.238",
                  "code": "2135-2",
                  "display": "Hispanic or Latino"
                }
              },
              {
                "url": "text",
                "valueString": "Puerto Rican"
              },
              {
                "url": "detailed",
                "valueCoding": {
                  "system": "urn:oid:2.16.840.1.113883.6.238",
                  "code": "2180-8",
                  "display": "Puerto Rican"
                }
              }
            ],
            "url": "http://hl7.org/fhir/us/core/StructureDefinition/us-core-ethnicity"
          },
          {
            "extension": [
              {
                "url": "text",
                "valueString": "White"
              },
              {
                "url": "ombCategory",
                "valueCoding": {
                  "system": "urn:oid:2.16.840.1.113883.6.238",
                  "code": "2106-3",
                  "display": "White"
                }
              },
              {
                "url": "text",
                "valueString": "Native Hawaiian or Other Pacific Islander"
              },
              {
                "url": "ombCategory",
                "valueCoding": {
                  "system": "urn:oid:2.16.840.1.113883.6.238",
                  "code": "2076-8",
                  "display": "Native Hawaiian or Other Pacific Islander"
                }
              }
            ],
            "url": "http://hl7.org/fhir/us/core/StructureDefinition/us-core-race"
          },
          {
            "url": "http://www.hl7.org/fhir/StructureDefinition/birthPlace",
            "valueAddress": {
              "line": [
                "1011 Example Street",
                "Line 2"
              ],
              "city": "Bedford",
              "district": "Middlesex",
              "state": "Massachusetts",
              "postalCode": "01730",
              "country": "United States"
            }
          }
        ],
        "identifier": [
          {
            "type": {
              "coding": [
                {
                  "code": "BR",
                  "display": "Social Beneficiary Identifier"
                }
              ]
            },
            "system": "http://hl7.org/fhir/sid/us-ssn",
            "value": "123456789"
          }
        ],
        "name": [
          {
            "use": "official",
            "family": "Last",
            "given": [
              "Example",
              "Something",
              "Middle"
            ],
            "suffix": [
              "Jr."
            ]
          }
        ],
        "gender": "male",
        "birthDate": "1940-02-19T16:48:06.498822-05:00",
        "address": [
          {
            "line": [
              "101 Example Street",
              "Line 2"
            ],
            "city": "Bedford",
            "district": "Middlesex",
            "state": "Massachusetts",
            "postalCode": "01730",
            "country": "United States"
          }
        ],
        "maritalStatus": {
          "coding": [
            {
              "system": "http://hl7.org/fhir/v3/MaritalStatus",
              "code": "S",
              "display": "Never Married"
            }
          ]
        }
      }
    },
    {
      "fullUrl": "urn:uuid:01f8a847-96c6-44ce-8f30-278d9a1b755f",
      "resource": {
        "resourceType": "Practitioner",
        "id": "urn:uuid:01f8a847-96c6-44ce-8f30-278d9a1b755f",
        "meta": {
          "profile": [
            "http://www.hl7.org/fhir/us/vrdr/StructureDefinition/VRDR-Certifier"
          ]
        },
        "name": [
          {
            "use": "official",
            "family": "Last",
            "given": [
              "Doctor",
              "Middle"
            ],
            "suffix": [
              "Jr."
            ]
          }
        ],
        "address": [
          {
            "line": [
              "11 Example Street",
              "Line 2"
            ],
            "city": "Bedford",
            "district": "Middlesex",
            "state": "Massachusetts",
            "postalCode": "01730",
            "country": "United States"
          }
        ],
        "qualification": [
          {
            "code": {
              "coding": [
                {
                  "system": "http://hl7.org/fhir/v2/0360/2.7",
                  "code": "MD",
                  "display": "Doctor of Medicine"
                }
              ]
            }
          }
        ]
      }
    },
    {
      "fullUrl": "urn:uuid:c97cef68-178c-4636-8f83-2bd1bc988b61",
      "resource": {
        "resourceType": "Practitioner",
        "id": "urn:uuid:c97cef68-178c-4636-8f83-2bd1bc988b61",
        "meta": {
          "profile": [
            "http://www.hl7.org/fhir/us/vrdr/StructureDefinition/VRDR-Mortician"
          ]
        },
        "name": [
          {
            "use": "official",
            "family": "Last",
            "given": [
              "FD",
              "Middle"
            ],
            "suffix": [
              "Jr."
            ]
          }
        ],
        "qualification": [
          {
            "identifier": [
              {
                "value": "9876543210"
              }
            ]
          }
        ]
      }
    },
    {
      "fullUrl": "urn:uuid:83c00be4-3eb7-455d-80cf-d767d5b7fd04",
      "resource": {
        "resourceType": "Procedure",
        "id": "urn:uuid:83c00be4-3eb7-455d-80cf-d767d5b7fd04",
        "meta": {
          "profile": [
            "http://www.hl7.org/fhir/us/vrdr/StructureDefinition/VRDR-Death-Certification"
          ]
        },
        "status": "completed",
        "category": {
          "coding": [
            {
              "system": "http://snomed.info/sct",
              "code": "103693007",
              "display": "Diagnostic procedure"
            }
          ]
        },
        "code": {
          "coding": [
            {
              "system": "http://snomed.info/sct",
              "code": "308646001",
              "display": "Death certification"
            }
          ]
        },
        "performedDateTime": "2019-01-29T16:48:06.498822-05:00",
        "performer": [
          {
            "role": {
              "coding": [
                {
                  "system": "http://snomed.info/sct",
                  "code": "309343006",
                  "display": "Physician"
                }
              ]
            },
            "actor": {
              "reference": "urn:uuid:01f8a847-96c6-44ce-8f30-278d9a1b755f"
            }
          }
        ]
      }
    },
    {
      "fullUrl": "urn:uuid:03d104a5-ea62-4087-af82-cf9cc1a12244",
      "resource": {
        "resourceType": "Organization",
        "id": "urn:uuid:03d104a5-ea62-4087-af82-cf9cc1a12244",
        "meta": {
          "profile": [
            "http://www.hl7.org/fhir/us/vrdr/StructureDefinition/VRDR-Interested-Party"
          ]
        },
        "identifier": [
          {
            "value": "1010101"
          }
        ],
        "active": true,
        "type": [
          {
            "coding": [
              {
                "system": "http://terminology.hl7.org/CodeSystem/organization-type",
                "code": "prov",
                "display": "Healthcare Provider"
              }
            ]
          }
        ],
        "name": "Example Hospital",
        "address": [
          {
            "line": [
              "10 Example Street",
              "Line 2"
            ],
            "city": "Bedford",
            "district": "Middlesex",
            "state": "Massachusetts",
            "postalCode": "01730",
            "country": "United States"
          }
        ]
      }
    },
    {
      "fullUrl": "urn:uuid:adce8a8d-ff16-4b6c-8525-5671d3348313",
      "resource": {
        "resourceType": "Organization",
        "id": "urn:uuid:adce8a8d-ff16-4b6c-8525-5671d3348313",
        "meta": {
          "profile": [
            "http://www.hl7.org/fhir/us/vrdr/StructureDefinition/VRDR-Funeral-Home"
          ]
        },
        "type": [
          {
            "coding": [
              {
                "code": "bus",
                "display": "Non-Healthcare Business or Corporation"
              }
            ]
          }
        ],
        "name": "Smith Funeral Home",
        "address": [
          {
            "line": [
              "1011010 Example Street",
              "Line 2"
            ],
            "city": "Bedford",
            "district": "Middlesex",
            "state": "Massachusetts",
            "postalCode": "01730",
            "country": "United States"
          }
        ]
      }
    },
    {
      "fullUrl": "urn:uuid:d0e85418-8d35-4de3-87ee-16737d9d5295",
      "resource": {
        "resourceType": "PractitionerRole",
        "id": "urn:uuid:d0e85418-8d35-4de3-87ee-16737d9d5295",
        "meta": {
          "profile": [
            "http://www.hl7.org/fhir/us/vrdr/StructureDefinition/VRDR-Funeral-Home-Director"
          ]
        },
        "practitioner": {
          "reference": "urn:uuid:c97cef68-178c-4636-8f83-2bd1bc988b61"
        },
        "organization": {
          "reference": "urn:uuid:adce8a8d-ff16-4b6c-8525-5671d3348313"
        }
      }
    },
    {
      "fullUrl": "urn:uuid:03756adc-5f1c-4e90-b3fd-f965a313dce6",
      "resource": {
        "resourceType": "List",
        "id": "urn:uuid:03756adc-5f1c-4e90-b3fd-f965a313dce6",
        "meta": {
          "profile": [
            "http://www.hl7.org/fhir/us/vrdr/StructureDefinition/VRDR-Cause-of-Death-Pathway"
          ]
        },
        "status": "current",
        "mode": "snapshot",
        "source": {
          "reference": "urn:uuid:01f8a847-96c6-44ce-8f30-278d9a1b755f"
        },
        "orderedBy": {
          "coding": [
            {
              "code": "priority"
            }
          ]
        },
        "entry": [
          {
            "item": {
              "reference": "urn:uuid:a35f9eee-b4f2-4cfc-9834-553055bbb6c2"
            }
          },
          {
            "item": {
              "reference": "urn:uuid:c7b0d5f5-609a-4f89-8f23-cb33d37ae65a"
            }
          },
          {
            "item": {
              "reference": "urn:uuid:c5e23307-e541-49f5-943d-d0a3c82cdd29"
            }
          },
          {
            "item": {
              "reference": "urn:uuid:40b288f1-4c32-4bc9-bce6-396354edfa65"
            }
          }
        ]
      }
    },
    {
      "fullUrl": "urn:uuid:4f565c50-ae62-44af-be31-59eb5d6c531b",
      "resource": {
        "resourceType": "Location",
        "id": "urn:uuid:4f565c50-ae62-44af-be31-59eb5d6c531b",
        "meta": {
          "profile": [
            "http://www.hl7.org/fhir/us/vrdr/StructureDefinition/VRDR-Disposition-Location"
          ]
        },
        "name": "Bedford Cemetery",
        "address": {
          "line": [
            "603 Example Street",
            "Line 2"
          ],
          "city": "Bedford",
          "district": "Middlesex",
          "state": "Massachusetts",
          "postalCode": "01730",
          "country": "United States"
        }
      }
    },
    {
      "fullUrl": "urn:uuid:bb213c59-3ea4-42b0-85a9-f38f4e7e6109",
      "resource": {
        "resourceType": "Observation",
        "id": "urn:uuid:bb213c59-3ea4-42b0-85a9-f38f4e7e6109",
        "meta": {
          "profile": [
            "http://www.hl7.org/fhir/us/vrdr/StructureDefinition/VRDR-Manner-of-Death"
          ]
        },
        "status": "final",
        "code": {
          "coding": [
            {
              "system": "http://loinc.org",
              "code": "69449-7",
              "display": "Manner of death"
            }
          ]
        },
        "subject": {
          "reference": "urn:uuid:52ddf5c3-bd68-4d02-8c67-c004aad833a8"
        },
        "performer": [
          {
            "reference": "urn:uuid:01f8a847-96c6-44ce-8f30-278d9a1b755f"
          }
        ],
        "valueCodeableConcept": {
          "coding": [
            {
              "code": "7878000",
              "display": "Accident"
            }
          ]
        }
      }
    },
    {
      "fullUrl": "urn:uuid:c8a9fb38-2b6a-4974-83e6-eb5b7f79a547",
      "resource": {
        "resourceType": "Condition",
        "id": "urn:uuid:c8a9fb38-2b6a-4974-83e6-eb5b7f79a547",
        "meta": {
          "profile": [
            "http://www.hl7.org/fhir/us/vrdr/StructureDefinition/VRDR-Condition-Contributing-To-Death"
          ]
        },
        "code": {
          "text": "Example Contributing Conditions"
        },
        "subject": {
          "reference": "urn:uuid:52ddf5c3-bd68-4d02-8c67-c004aad833a8"
        }
      }
    },
    {
      "fullUrl": "urn:uuid:a35f9eee-b4f2-4cfc-9834-553055bbb6c2",
      "resource": {
        "resourceType": "Condition",
        "id": "urn:uuid:a35f9eee-b4f2-4cfc-9834-553055bbb6c2",
        "meta": {
          "profile": [
            "http://www.hl7.org/fhir/us/vrdr/StructureDefinition/VRDR-Cause-Of-Death-Condition"
          ]
        },
        "code": {
          "coding": [
            {
              "system": "http://hl7.org/fhir/sid/icd-10",
              "code": "I21.0",
              "display": "Acute transmural myocardial infarction of anterior wall"
            }
          ],
          "text": "Rupture of myocardium"
        },
        "subject": {
          "reference": "urn:uuid:52ddf5c3-bd68-4d02-8c67-c004aad833a8"
        },
        "onsetString": "minutes",
        "asserter": {
          "reference": "urn:uuid:01f8a847-96c6-44ce-8f30-278d9a1b755f"
        }
      }
    },
    {
      "fullUrl": "urn:uuid:c7b0d5f5-609a-4f89-8f23-cb33d37ae65a",
      "resource": {
        "resourceType": "Condition",
        "id": "urn:uuid:c7b0d5f5-609a-4f89-8f23-cb33d37ae65a",
        "meta": {
          "profile": [
            "http://www.hl7.org/fhir/us/vrdr/StructureDefinition/VRDR-Cause-Of-Death-Condition"
          ]
        },
        "code": {
          "coding": [
            {
              "system": "http://hl7.org/fhir/sid/icd-10",
              "code": "I21.9",
              "display": "Acute myocardial infarction, unspecified"
            }
          ],
          "text": "Acute myocardial infarction"
        },
        "subject": {
          "reference": "urn:uuid:52ddf5c3-bd68-4d02-8c67-c004aad833a8"
        },
        "onsetString": "6 days",
        "asserter": {
          "reference": "urn:uuid:01f8a847-96c6-44ce-8f30-278d9a1b755f"
        }
      }
    },
    {
      "fullUrl": "urn:uuid:c5e23307-e541-49f5-943d-d0a3c82cdd29",
      "resource": {
        "resourceType": "Condition",
        "id": "urn:uuid:c5e23307-e541-49f5-943d-d0a3c82cdd29",
        "meta": {
          "profile": [
            "http://www.hl7.org/fhir/us/vrdr/StructureDefinition/VRDR-Cause-Of-Death-Condition"
          ]
        },
        "code": {
          "text": "Coronary artery thrombosis"
        },
        "subject": {
          "reference": "urn:uuid:52ddf5c3-bd68-4d02-8c67-c004aad833a8"
        },
        "onsetString": "5 years",
        "asserter": {
          "reference": "urn:uuid:01f8a847-96c6-44ce-8f30-278d9a1b755f"
        }
      }
    },
    {
      "fullUrl": "urn:uuid:40b288f1-4c32-4bc9-bce6-396354edfa65",
      "resource": {
        "resourceType": "Condition",
        "id": "urn:uuid:40b288f1-4c32-4bc9-bce6-396354edfa65",
        "meta": {
          "profile": [
            "http://www.hl7.org/fhir/us/vrdr/StructureDefinition/VRDR-Cause-Of-Death-Condition"
          ]
        },
        "code": {
          "text": "Atherosclerotic coronary artery disease"
        },
        "subject": {
          "reference": "urn:uuid:52ddf5c3-bd68-4d02-8c67-c004aad833a8"
        },
        "onsetString": "7 years",
        "asserter": {
          "reference": "urn:uuid:01f8a847-96c6-44ce-8f30-278d9a1b755f"
        }
      }
    },
    {
      "fullUrl": "urn:uuid:ae52d16b-14c5-46b1-8100-2353731a6cdc",
      "resource": {
        "resourceType": "RelatedPerson",
        "id": "urn:uuid:ae52d16b-14c5-46b1-8100-2353731a6cdc",
        "meta": {
          "profile": [
            "http://www.hl7.org/fhir/us/vrdr/StructureDefinition/VRDR-Decedent-Father"
          ]
        },
        "patient": {
          "reference": "urn:uuid:52ddf5c3-bd68-4d02-8c67-c004aad833a8"
        },
        "relationship": {
          "coding": [
            {
              "code": "FTH"
            }
          ]
        },
        "name": [
          {
            "family": "Last",
            "given": [
              "Father",
              "Middle"
            ],
            "suffix": [
              "Sr."
            ]
          }
        ]
      }
    },
    {
      "fullUrl": "urn:uuid:17e06964-e4bc-4909-a956-afad4e0b7820",
      "resource": {
        "resourceType": "RelatedPerson",
        "id": "urn:uuid:17e06964-e4bc-4909-a956-afad4e0b7820",
        "meta": {
          "profile": [
            "http://www.hl7.org/fhir/us/vrdr/StructureDefinition/VRDR-Decedent-Mother"
          ]
        },
        "patient": {
          "reference": "urn:uuid:52ddf5c3-bd68-4d02-8c67-c004aad833a8"
        },
        "relationship": {
          "coding": [
            {
              "code": "MTH"
            }
          ]
        },
        "name": [
          {
            "family": "Maiden",
            "given": [
              "Mother",
              "Middle"
            ],
            "suffix": [
              "Dr."
            ]
          }
        ]
      }
    },
    {
      "fullUrl": "urn:uuid:5b929ad0-1626-4b2b-88b9-ccfbd94a74b4",
      "resource": {
        "resourceType": "RelatedPerson",
        "id": "urn:uuid:5b929ad0-1626-4b2b-88b9-ccfbd94a74b4",
        "meta": {
          "profile": [
            "http://www.hl7.org/fhir/us/vrdr/StructureDefinition/VRDR-Decedent-Spouse"
          ]
        },
        "patient": {
          "reference": "urn:uuid:52ddf5c3-bd68-4d02-8c67-c004aad833a8"
        },
        "relationship": {
          "coding": [
            {
              "code": "SPS"
            }
          ]
        },
        "name": [
          {
            "family": "Last",
            "given": [
              "Spouse",
              "Middle"
            ],
            "suffix": [
              "Ph.D."
            ]
          }
        ]
      }
    },
    {
      "fullUrl": "urn:uuid:6eebaaa7-2408-4664-b63d-b3083e97d932",
      "resource": {
        "resourceType": "Observation",
        "id": "urn:uuid:6eebaaa7-2408-4664-b63d-b3083e97d932",
        "meta": {
          "profile": [
            "http://www.hl7.org/fhir/us/vrdr/StructureDefinition/VRDR-Decedent-Education-Level"
          ]
        },
        "status": "final",
        "code": {
          "coding": [
            {
              "system": "http://loinc.org",
              "code": "80913-7",
              "display": "Highest level of education"
            }
          ]
        },
        "subject": {
          "reference": "urn:uuid:52ddf5c3-bd68-4d02-8c67-c004aad833a8"
        },
        "valueCodeableConcept": {
          "coding": [
            {
              "system": "http://hl7.org/fhir/v3/EducationLevel",
              "code": "BD",
              "display": "College or baccalaureate degree complete"
            }
          ]
        }
      }
    },
    {
      "fullUrl": "urn:uuid:a0590dab-cb92-4b05-ab57-4d7fc28b8201",
      "resource": {
        "resourceType": "Observation",
        "id": "urn:uuid:a0590dab-cb92-4b05-ab57-4d7fc28b8201",
        "meta": {
          "profile": [
            "http://www.hl7.org/fhir/us/vrdr/StructureDefinition/VRDR-Birth-Record-Identifier"
          ]
        },
        "status": "final",
        "code": {
          "coding": [
            {
              "code": "BR"
            }
          ]
        },
        "subject": {
          "reference": "urn:uuid:52ddf5c3-bd68-4d02-8c67-c004aad833a8"
        },
        "valueString": "4242123"
      }
    },
    {
      "fullUrl": "urn:uuid:f2bc2de8-cb7d-40b7-b77b-0537da711d0e",
      "resource": {
        "resourceType": "Observation",
        "id": "urn:uuid:f2bc2de8-cb7d-40b7-b77b-0537da711d0e",
        "meta": {
          "profile": [
            "http://www.hl7.org/fhir/us/vrdr/StructureDefinition/VRDR-Decedent-Employment-History"
          ]
        },
        "status": "final",
        "code": {
          "coding": [
            {
              "system": "http://loinc.org",
              "code": "74165-2",
              "display": "History of employment status"
            }
          ]
        },
        "subject": {
          "reference": "urn:uuid:52ddf5c3-bd68-4d02-8c67-c004aad833a8"
        },
        "component": [
          {
            "code": {
              "coding": [
                {
                  "system": "http://loinc.org",
                  "code": "21847-9",
                  "display": "Usual occupation"
                }
              ]
            },
            "valueCodeableConcept": {
              "coding": [
                {
                  "system": "http://www.hl7.org/fhir/ValueSet/Usual-occupation",
                  "code": "7280",
                  "display": "Accounting, tax preparation, bookkeeping, and payroll services"
                }
              ]
            }
          },
          {
            "code": {
              "coding": [
                {
                  "system": "http://loinc.org",
                  "code": "21844-6",
                  "display": "Usual industry"
                }
              ]
            },
            "valueCodeableConcept": {
              "coding": [
                {
                  "system": "http://www.hl7.org/fhir/ValueSet/industry-cdc-census-2010",
                  "code": "1320",
                  "display": "Aerospace engineers"
                }
              ]
            }
          },
          {
            "code": {
              "coding": [
                {
                  "system": "http://loinc.org",
                  "code": "55280-2",
                  "display": "Military service"
                }
              ]
            },
            "valueCodeableConcept": {
              "coding": [
                {
                  "system": "http://www.hl7.org/fhir/ValueSet/v2-0532",
                  "code": "Y",
                  "display": "Yes"
                }
              ]
            }
          }
        ]
      }
    },
    {
      "fullUrl": "urn:uuid:d9b487d8-21de-4085-b9e9-4b9376dda749",
      "resource": {
        "resourceType": "Observation",
        "id": "urn:uuid:d9b487d8-21de-4085-b9e9-4b9376dda749",
        "meta": {
          "profile": [
            "http://www.hl7.org/fhir/us/vrdr/StructureDefinition/VRDR-Decedent-Disposition-Method"
          ]
        },
        "extension": [
          {
            "url": "http://www.hl7.org/fhir/us/vrdr/StructureDefinition/VRDR-Disposition-Location",
            "valueReference": {
              "reference": "urn:uuid:4f565c50-ae62-44af-be31-59eb5d6c531b"
            }
          }
        ],
        "status": "final",
        "code": {
          "coding": [
            {
              "system": "http://loinc.org",
              "code": "80905-3",
              "display": "Body disposition method"
            }
          ]
        },
        "subject": {
          "reference": "urn:uuid:52ddf5c3-bd68-4d02-8c67-c004aad833a8"
        },
        "performer": [
          {
            "reference": "urn:uuid:c97cef68-178c-4636-8f83-2bd1bc988b61"
          }
        ],
        "valueCodeableConcept": {
          "coding": [
            {
              "system": "http://snomed.info/sct",
              "code": "449971000124106",
              "display": "Burial"
            }
          ]
        }
      }
    },
    {
      "fullUrl": "urn:uuid:8a85dab4-0743-439e-bacf-5fdd34122895",
      "resource": {
        "resourceType": "Observation",
        "id": "urn:uuid:8a85dab4-0743-439e-bacf-5fdd34122895",
        "meta": {
          "profile": [
            "http://www.hl7.org/fhir/us/vrdr/StructureDefinition/VRDR-Autopsy-Performed-Indicator"
          ]
        },
        "status": "final",
        "code": {
          "coding": [
            {
              "system": "http://loinc.org",
              "code": "85699-7",
              "display": "Autopsy was performed"
            }
          ]
        },
        "subject": {
          "reference": "urn:uuid:52ddf5c3-bd68-4d02-8c67-c004aad833a8"
        },
        "valueCodeableConcept": {
          "coding": [
            {
              "system": "http://www.hl7.org/fhir/ValueSet/v2-0532",
              "code": "Y",
              "display": "Yes"
            }
          ]
        },
        "component": [
          {
            "code": {
              "coding": [
                {
                  "system": "http://loinc.org",
                  "code": "69436-4",
                  "display": "Autopsy results available"
                }
              ]
            },
            "valueCodeableConcept": {
              "coding": [
                {
                  "system": "http://www.hl7.org/fhir/ValueSet/v2-0532",
                  "code": "Y",
                  "display": "Yes"
                }
              ]
            }
          }
        ]
      }
    },
    {
      "fullUrl": "urn:uuid:24f3cb0a-d833-4d11-aacc-039f6e3a7c35",
      "resource": {
        "resourceType": "Observation",
        "id": "urn:uuid:24f3cb0a-d833-4d11-aacc-039f6e3a7c35",
        "meta": {
          "profile": [
            "http://www.hl7.org/fhir/us/vrdr/StructureDefinition/VRDR-Decedent-Age"
          ]
        },
        "status": "final",
        "code": {
          "coding": [
            {
              "system": "http://loinc.org",
              "code": "30525-0",
              "display": "Age"
            }
          ]
        },
        "subject": {
          "reference": "urn:uuid:52ddf5c3-bd68-4d02-8c67-c004aad833a8"
        },
        "valueQuantity": {
          "value": 100,
          "unit": "a"
        }
      }
    },
    {
      "fullUrl": "urn:uuid:3490104b-b1e2-44bc-bfb8-ffb74097df6d",
      "resource": {
        "resourceType": "Observation",
        "id": "urn:uuid:3490104b-b1e2-44bc-bfb8-ffb74097df6d",
        "meta": {
          "profile": [
            "http://www.hl7.org/fhir/us/vrdr/StructureDefinition/VRDR-Decedent-Pregnancy"
          ]
        },
        "status": "final",
        "code": {
          "coding": [
            {
              "system": "http://loinc.org",
              "code": "69442-2",
              "display": "Timing of recent pregnancy in relation to death"
            }
          ]
        },
        "subject": {
          "reference": "urn:uuid:52ddf5c3-bd68-4d02-8c67-c004aad833a8"
        },
        "valueCodeableConcept": {
          "coding": [
            {
              "system": "http://www.hl7.org/fhir/stu3/valueset-PregnancyStatusVS",
              "code": "PHC1260",
              "display": "Not pregnant within past year"
            }
          ]
        }
      }
    },
    {
      "fullUrl": "urn:uuid:d111817b-b8f3-4b18-80e0-2fb6bcc52e20",
      "resource": {
        "resourceType": "Observation",
        "id": "urn:uuid:d111817b-b8f3-4b18-80e0-2fb6bcc52e20",
        "meta": {
          "profile": [
            "http://www.hl7.org/fhir/us/vrdr/StructureDefinition/VRDR-Decedent-Transportation-Role"
          ]
        },
        "status": "final",
        "code": {
          "coding": [
            {
              "system": "http://loinc.org",
              "code": "69451-3",
              "display": "Transportation role of decedent"
            }
          ]
        },
        "subject": {
          "reference": "urn:uuid:52ddf5c3-bd68-4d02-8c67-c004aad833a8"
        },
        "valueCodeableConcept": {
          "coding": [
            {
              "system": "http://www.hl7.org/fhir/stu3/valueset-TransportationRelationships",
              "code": "example-code",
              "display": "Example Code"
            }
          ]
        }
      }
    },
    {
      "fullUrl": "urn:uuid:9be3384d-7b87-4d8d-92b1-9b1f12976fa1",
      "resource": {
        "resourceType": "Observation",
        "id": "urn:uuid:9be3384d-7b87-4d8d-92b1-9b1f12976fa1",
        "meta": {
          "profile": [
            "http://www.hl7.org/fhir/us/vrdr/StructureDefinition/VRDR-Examiner-Contacted"
          ]
        },
        "status": "final",
        "code": {
          "coding": [
            {
              "system": "http://loinc.org",
              "code": "74497-9",
              "display": "Medical examiner or coroner was contacted"
            }
          ]
        },
        "subject": {
          "reference": "urn:uuid:52ddf5c3-bd68-4d02-8c67-c004aad833a8"
        },
        "valueBoolean": false
      }
    },
    {
      "fullUrl": "urn:uuid:60687ff4-5fe5-4e4d-b6cd-2d2015adf0a2",
      "resource": {
        "resourceType": "Observation",
        "id": "urn:uuid:60687ff4-5fe5-4e4d-b6cd-2d2015adf0a2",
        "meta": {
          "profile": [
            "http://www.hl7.org/fhir/us/vrdr/StructureDefinition/VRDR-Tobacco-Use-Contributed-To-Death"
          ]
        },
        "status": "final",
        "code": {
          "coding": [
            {
              "system": "http://loinc.org",
              "code": "69443-0",
              "display": "Did tobacco use contribute to death"
            }
          ]
        },
        "subject": {
          "reference": "urn:uuid:52ddf5c3-bd68-4d02-8c67-c004aad833a8"
        },
        "valueCodeableConcept": {
          "coding": [
            {
              "system": "http://www.hl7.org/fhir/ValueSet/v2-0532",
              "code": "Y",
              "display": "Yes"
            }
          ]
        }
      }
    },
    {
      "fullUrl": "urn:uuid:0d73f473-d4fd-480d-a736-4b3443b40b69",
      "resource": {
        "resourceType": "Location",
        "id": "urn:uuid:0d73f473-d4fd-480d-a736-4b3443b40b69",
        "meta": {
          "profile": [
            "http://www.hl7.org/fhir/us/vrdr/StructureDefinition/VRDR-Injury-Location"
          ]
        },
        "name": "Example Injury Location Name",
        "description": "Example Injury Location Description",
        "address": {
          "line": [
            "781 Example Street",
            "Line 2"
          ],
          "city": "Bedford",
          "district": "Middlesex",
          "state": "Massachusetts",
          "postalCode": "01730",
          "country": "United States"
        }
      }
    },
    {
      "fullUrl": "urn:uuid:785d0e7e-a582-4f0f-96ac-da1d317ad436",
      "resource": {
        "resourceType": "Observation",
        "id": "urn:uuid:785d0e7e-a582-4f0f-96ac-da1d317ad436",
        "meta": {
          "profile": [
            "http://www.hl7.org/fhir/us/vrdr/StructureDefinition/VRDR-Injury-Incident"
          ]
        },
        "status": "final",
        "code": {
          "coding": [
            {
              "system": "http://loinc.org",
              "code": "11374-6",
              "display": "Injury incident description"
            }
          ]
        },
        "subject": {
          "reference": "urn:uuid:52ddf5c3-bd68-4d02-8c67-c004aad833a8"
        },
        "effectiveDateTime": "2018-02-19T16:48:06.498822-05:00"
      }
    },
    {
      "fullUrl": "urn:uuid:2f09577e-a7a3-46a1-ad14-dc66efe8f03c",
      "resource": {
        "resourceType": "Location",
        "id": "urn:uuid:2f09577e-a7a3-46a1-ad14-dc66efe8f03c",
        "meta": {
          "profile": [
            "http://www.hl7.org/fhir/us/vrdr/StructureDefinition/VRDR-Death-Location"
          ]
        },
        "name": "Example Death Location Name",
        "description": "Example Death Location Description",
        "address": {
          "line": [
            "671 Example Street",
            "Line 2"
          ],
          "city": "Bedford",
          "district": "Middlesex",
          "state": "Massachusetts",
          "postalCode": "01730",
          "country": "United States"
        }
      }
    },
    {
      "fullUrl": "urn:uuid:7fd1dd23-5c61-4d31-8180-3d5715e280ed",
      "resource": {
        "resourceType": "Observation",
        "id": "urn:uuid:7fd1dd23-5c61-4d31-8180-3d5715e280ed",
        "meta": {
          "profile": [
            "http://www.hl7.org/fhir/us/vrdr/StructureDefinition/VRDR-Death-Date"
          ]
        },
        "status": "final",
        "code": {
          "coding": [
            {
              "system": "http://loinc.org",
              "code": "81956-5",
              "display": "Date and time of death"
            }
          ]
        },
        "subject": {
          "reference": "urn:uuid:52ddf5c3-bd68-4d02-8c67-c004aad833a8"
        },
        "effectiveDateTime": "2018-02-19T16:48:06.498822-05:00",
        "performer": [
          {
            "reference": "urn:uuid:01f8a847-96c6-44ce-8f30-278d9a1b755f"
          }
        ],
        "component": [
          {
            "code": {
              "coding": [
                {
                  "system": "http://loinc.org",
                  "code": "80616-6",
                  "display": "Date and time pronounced dead"
                }
              ]
            },
            "valueDateTime": "2018-02-20T16:48:06.498822-05:00"
          }
        ]
      }
    }
  ]
}


