<Bundle xmlns="http://hl7.org/fhir">
  <id value="urn:uuid:12d48f7c-0357-4dce-bfa5-15c34fb6ad8c" />
  <meta>
    <profile value="http://www.hl7.org/fhir/us/vrdr/StructureDefinition/VRDR-Death-Certificate-Document" />
  </meta>
  <identifier>
    <value value="42" />
  </identifier>
  <type value="document" />
  <entry>
    <fullUrl value="urn:uuid:74f4ffb4-2e84-4d94-9ca7-d079c68cc6c9" />
    <resource>
      <Composition>
        <id value="urn:uuid:74f4ffb4-2e84-4d94-9ca7-d079c68cc6c9" />
        <meta>
          <profile value="http://www.hl7.org/fhir/us/vrdr/StructureDefinition/VRDR-Death-Certificate" />
        </meta>
        <identifier>
          <value value="1" />
        </identifier>
        <status value="final" />
        <type>
          <coding>
            <system value="http://loinc.org" />
            <code value="64297-5" />
            <display value="Death certificate" />
          </coding>
        </type>
        <subject>
          <reference value="urn:uuid:2ef69827-51e7-40f9-bee1-4319524f123b" />
        </subject>
        <date value="2019-01-20T16:47:04.4988220-05:00" />
        <attester>
          <mode value="legal" />
          <time value="2019-01-29T16:48:06.4988220-05:00" />
          <party>
            <reference value="urn:uuid:de7b784d-56cd-49b7-a8fe-6665006f1f5e" />
          </party>
        </attester>
        <event>
          <code>
            <coding>
              <system value="http://snomed.info/sct" />
              <code value="103693007" />
              <display value="Diagnostic procedure" />
            </coding>
          </code>
          <detail>
            <reference value="urn:uuid:36536c18-78d5-4684-bc6c-1f75adc69655" />
          </detail>
        </event>
        <section>
          <entry>
            <reference value="urn:uuid:2ef69827-51e7-40f9-bee1-4319524f123b" />
          </entry>
          <entry>
            <reference value="urn:uuid:de7b784d-56cd-49b7-a8fe-6665006f1f5e" />
          </entry>
          <entry>
            <reference value="urn:uuid:3076c531-9e84-4eaf-8102-86c10e5e020b" />
          </entry>
          <entry>
            <reference value="urn:uuid:36536c18-78d5-4684-bc6c-1f75adc69655" />
          </entry>
          <entry>
            <reference value="urn:uuid:f686e6ab-3bc0-4818-b233-93df4a4956a4" />
          </entry>
          <entry>
            <reference value="urn:uuid:94d46f0c-0630-4256-9b9f-6121f668a6ff" />
          </entry>
          <entry>
            <reference value="urn:uuid:eb64ef59-010a-4644-ad46-f0cb146f4e6a" />
          </entry>
          <entry>
            <reference value="urn:uuid:4be2a5cf-da90-4c4a-bd29-787a8006ea2c" />
          </entry>
          <entry>
            <reference value="urn:uuid:1c7c6aa9-6f76-4ff8-a64c-28a82bf9cbdf" />
          </entry>
          <entry>
            <reference value="urn:uuid:773e877a-bcd3-4065-b50e-641a4ca4e801" />
          </entry>
          <entry>
            <reference value="urn:uuid:7ba1af7d-e549-45c0-9d5e-b6fbe4fc416e" />
          </entry>
          <entry>
            <reference value="urn:uuid:8e318c96-96ac-4ff7-965a-1ae1137b0910" />
          </entry>
          <entry>
            <reference value="urn:uuid:d3b14ec7-fddc-43b0-a926-e42a12a19faf" />
          </entry>
          <entry>
            <reference value="urn:uuid:f1bef7de-47ed-4aa4-83cd-15414dffd811" />
          </entry>
          <entry>
            <reference value="urn:uuid:6951c2c5-36c7-4154-a0e7-f9b5af384772" />
          </entry>
          <entry>
            <reference value="urn:uuid:47189bb7-128e-417c-a76a-5988b7ffe8cf" />
          </entry>
          <entry>
            <reference value="urn:uuid:688a1792-7be9-4359-a3ee-3fb309fbfddd" />
          </entry>
          <entry>
            <reference value="urn:uuid:0c20e69c-d1fd-479d-b685-3407cdf62dbf" />
          </entry>
          <entry>
            <reference value="urn:uuid:0d5b06e3-c4fb-41e3-bf48-3781bf42e62f" />
          </entry>
          <entry>
            <reference value="urn:uuid:9e271764-f02d-4b65-b75d-702253bbc8e6" />
          </entry>
          <entry>
            <reference value="urn:uuid:4acfebf8-c836-4ba9-845f-29909246e631" />
          </entry>
          <entry>
            <reference value="urn:uuid:e33a9eed-6139-4f8a-8f09-ba37de89ed8f" />
          </entry>
          <entry>
            <reference value="urn:uuid:c44182b6-b191-41d8-a090-011de72449a3" />
          </entry>
          <entry>
            <reference value="urn:uuid:ff27ed42-4df3-43fb-b96e-06de0df4ff45" />
          </entry>
          <entry>
            <reference value="urn:uuid:773e159a-82e9-43dc-a246-81b7dd263596" />
          </entry>
          <entry>
            <reference value="urn:uuid:5a3fdd48-b731-4cd5-869f-6146bcef6b50" />
          </entry>
          <entry>
            <reference value="urn:uuid:34088e6f-9224-4f15-9a86-7007bd5388c9" />
          </entry>
          <entry>
            <reference value="urn:uuid:db8a0e2d-f66e-42f2-8f42-eee7215bdc52" />
          </entry>
          <entry>
            <reference value="urn:uuid:0b285905-4153-4064-8f94-c175dcc7d8ac" />
          </entry>
          <entry>
            <reference value="urn:uuid:bb6d46d6-2b3d-469e-9a45-5903d9b2dec7" />
          </entry>
          <entry>
            <reference value="urn:uuid:ddb0b505-c99c-42fd-a1ce-bf32ff20c329" />
          </entry>
          <entry>
            <reference value="urn:uuid:bb2809be-1dd4-47e3-9b86-f6ca8b8440d9" />
          </entry>
        </section>
      </Composition>
    </resource>
  </entry>
  <entry>
    <fullUrl value="urn:uuid:2ef69827-51e7-40f9-bee1-4319524f123b" />
    <resource>
      <Patient>
        <id value="urn:uuid:2ef69827-51e7-40f9-bee1-4319524f123b" />
        <meta>
          <profile value="http://www.hl7.org/fhir/us/vrdr/StructureDefinition/VRDR-Decedent" />
        </meta>
        <extension url="http://hl7.org/fhir/us/core/StructureDefinition/us-core-birthsex">
          <valueCodeableConcept>
            <coding>
              <system value="http://hl7.org/fhir/us/core/ValueSet/us-core-birthsex" />
              <code value="M" />
              <display value="Male" />
            </coding>
          </valueCodeableConcept>
        </extension>
        <extension url="http://hl7.org/fhir/us/core/StructureDefinition/us-core-ethnicity">
          <extension url="ombCategory">
            <valueCoding>
              <system value="urn:oid:2.16.840.1.113883.6.238" />
              <code value="2135-2" />
              <display value="Hispanic or Latino" />
            </valueCoding>
          </extension>
          <extension url="detailed">
            <valueCoding>
              <system value="urn:oid:2.16.840.1.113883.6.238" />
              <code value="2180-8" />
              <display value="Puerto Rican" />
            </valueCoding>
          </extension>
          <extension url="text">
            <valueString value="Hispanic or Latino, Puerto Rican" />
          </extension>
        </extension>
        <extension url="http://hl7.org/fhir/us/core/StructureDefinition/us-core-race">
          <extension url="ombCategory">
            <valueCoding>
              <system value="urn:oid:2.16.840.1.113883.6.238" />
              <code value="2106-3" />
              <display value="White" />
            </valueCoding>
          </extension>
          <extension url="ombCategory">
            <valueCoding>
              <system value="urn:oid:2.16.840.1.113883.6.238" />
              <code value="2076-8" />
              <display value="Native Hawaiian or Other Pacific Islander" />
            </valueCoding>
          </extension>
          <extension url="text">
            <valueString value="White, Native Hawaiian or Other Pacific Islander" />
          </extension>
        </extension>
        <extension url="http://www.hl7.org/fhir/StructureDefinition/birthPlace">
          <valueAddress>
            <line value="1011 Example Street" />
            <line value="Line 2" />
            <city value="Bedford" />
            <district value="Middlesex" />
            <state value="Massachusetts" />
            <postalCode value="01730" />
            <country value="United States" />
          </valueAddress>
        </extension>
        <identifier>
          <type>
            <coding>
              <code value="BR" />
              <display value="Social Beneficiary Identifier" />
            </coding>
          </type>
          <system value="http://hl7.org/fhir/sid/us-ssn" />
          <value value="123456789" />
        </identifier>
        <name>
          <use value="official" />
          <family value="Last" />
          <given value="Example" />
          <given value="Something" />
          <given value="Middle" />
          <suffix value="Jr." />
        </name>
        <gender value="male" />
        <birthDate value="1940-02-19T16:48:06.4988220-05:00" />
        <address>
          <line value="101 Example Street" />
          <line value="Line 2" />
          <city value="Bedford" />
          <district value="Middlesex" />
          <state value="Massachusetts" />
          <postalCode value="01730" />
          <country value="United States" />
        </address>
        <maritalStatus>
          <coding>
            <system value="http://hl7.org/fhir/v3/MaritalStatus" />
            <code value="S" />
            <display value="Never Married" />
          </coding>
        </maritalStatus>
      </Patient>
    </resource>
  </entry>
  <entry>
    <fullUrl value="urn:uuid:de7b784d-56cd-49b7-a8fe-6665006f1f5e" />
    <resource>
      <Practitioner>
        <id value="urn:uuid:de7b784d-56cd-49b7-a8fe-6665006f1f5e" />
        <meta>
          <profile value="http://www.hl7.org/fhir/us/vrdr/StructureDefinition/VRDR-Certifier" />
        </meta>
        <name>
          <use value="official" />
          <family value="Last" />
          <given value="Doctor" />
          <given value="Middle" />
          <suffix value="Jr." />
        </name>
        <address>
          <line value="11 Example Street" />
          <line value="Line 2" />
          <city value="Bedford" />
          <district value="Middlesex" />
          <state value="Massachusetts" />
          <postalCode value="01730" />
          <country value="United States" />
        </address>
        <qualification>
          <code>
            <coding>
              <system value="http://hl7.org/fhir/v2/0360/2.7" />
              <code value="MD" />
              <display value="Doctor of Medicine" />
            </coding>
          </code>
        </qualification>
      </Practitioner>
    </resource>
  </entry>
  <entry>
    <fullUrl value="urn:uuid:3076c531-9e84-4eaf-8102-86c10e5e020b" />
    <resource>
      <Practitioner>
        <id value="urn:uuid:3076c531-9e84-4eaf-8102-86c10e5e020b" />
        <meta>
          <profile value="http://www.hl7.org/fhir/us/vrdr/StructureDefinition/VRDR-Mortician" />
        </meta>
        <name>
          <use value="official" />
          <family value="Last" />
          <given value="FD" />
          <given value="Middle" />
          <suffix value="Jr." />
        </name>
        <qualification>
          <identifier>
            <value value="9876543210" />
          </identifier>
        </qualification>
      </Practitioner>
    </resource>
  </entry>
  <entry>
    <fullUrl value="urn:uuid:36536c18-78d5-4684-bc6c-1f75adc69655" />
    <resource>
      <Procedure>
        <id value="urn:uuid:36536c18-78d5-4684-bc6c-1f75adc69655" />
        <meta>
          <profile value="http://www.hl7.org/fhir/us/vrdr/StructureDefinition/VRDR-Death-Certification" />
        </meta>
        <status value="completed" />
        <category>
          <coding>
            <system value="http://snomed.info/sct" />
            <code value="103693007" />
            <display value="Diagnostic procedure" />
          </coding>
        </category>
        <code>
          <coding>
            <system value="http://snomed.info/sct" />
            <code value="308646001" />
            <display value="Death certification" />
          </coding>
        </code>
        <performedDateTime value="2019-01-29T16:48:06.4988220-05:00" />
        <performer>
          <role>
            <coding>
              <system value="http://snomed.info/sct" />
              <code value="309343006" />
              <display value="Physician" />
            </coding>
          </role>
          <actor>
            <reference value="urn:uuid:de7b784d-56cd-49b7-a8fe-6665006f1f5e" />
          </actor>
        </performer>
      </Procedure>
    </resource>
  </entry>
  <entry>
    <fullUrl value="urn:uuid:f686e6ab-3bc0-4818-b233-93df4a4956a4" />
    <resource>
      <Organization>
        <id value="urn:uuid:f686e6ab-3bc0-4818-b233-93df4a4956a4" />
        <meta>
          <profile value="http://www.hl7.org/fhir/us/vrdr/StructureDefinition/VRDR-Interested-Party" />
        </meta>
        <identifier>
          <value value="1010101" />
        </identifier>
        <active value="true" />
        <type>
          <coding>
            <system value="http://terminology.hl7.org/CodeSystem/organization-type" />
            <code value="prov" />
            <display value="Healthcare Provider" />
          </coding>
        </type>
        <name value="Example Hospital" />
        <address>
          <line value="10 Example Street" />
          <line value="Line 2" />
          <city value="Bedford" />
          <district value="Middlesex" />
          <state value="Massachusetts" />
          <postalCode value="01730" />
          <country value="United States" />
        </address>
      </Organization>
    </resource>
  </entry>
  <entry>
    <fullUrl value="urn:uuid:94d46f0c-0630-4256-9b9f-6121f668a6ff" />
    <resource>
      <Organization>
        <id value="urn:uuid:94d46f0c-0630-4256-9b9f-6121f668a6ff" />
        <meta>
          <profile value="http://www.hl7.org/fhir/us/vrdr/StructureDefinition/VRDR-Funeral-Home" />
        </meta>
        <type>
          <coding>
            <code value="bus" />
            <display value="Non-Healthcare Business or Corporation" />
          </coding>
        </type>
        <name value="Smith Funeral Home" />
        <address>
          <line value="1011010 Example Street" />
          <line value="Line 2" />
          <city value="Bedford" />
          <district value="Middlesex" />
          <state value="Massachusetts" />
          <postalCode value="01730" />
          <country value="United States" />
        </address>
      </Organization>
    </resource>
  </entry>
  <entry>
    <fullUrl value="urn:uuid:eb64ef59-010a-4644-ad46-f0cb146f4e6a" />
    <resource>
      <PractitionerRole>
        <id value="urn:uuid:eb64ef59-010a-4644-ad46-f0cb146f4e6a" />
        <meta>
          <profile value="http://www.hl7.org/fhir/us/vrdr/StructureDefinition/VRDR-Funeral-Home-Director" />
        </meta>
        <practitioner>
          <reference value="urn:uuid:3076c531-9e84-4eaf-8102-86c10e5e020b" />
        </practitioner>
        <organization>
          <reference value="urn:uuid:94d46f0c-0630-4256-9b9f-6121f668a6ff" />
        </organization>
      </PractitionerRole>
    </resource>
  </entry>
  <entry>
    <fullUrl value="urn:uuid:4be2a5cf-da90-4c4a-bd29-787a8006ea2c" />
    <resource>
      <List>
        <id value="urn:uuid:4be2a5cf-da90-4c4a-bd29-787a8006ea2c" />
        <meta>
          <profile value="http://www.hl7.org/fhir/us/vrdr/StructureDefinition/VRDR-Cause-of-Death-Pathway" />
        </meta>
        <status value="current" />
        <mode value="snapshot" />
        <source>
          <reference value="urn:uuid:de7b784d-56cd-49b7-a8fe-6665006f1f5e" />
        </source>
        <orderedBy>
          <coding>
            <code value="priority" />
          </coding>
        </orderedBy>
        <entry>
          <item>
            <reference value="urn:uuid:8e318c96-96ac-4ff7-965a-1ae1137b0910" />
          </item>
        </entry>
        <entry>
          <item>
            <reference value="urn:uuid:d3b14ec7-fddc-43b0-a926-e42a12a19faf" />
          </item>
        </entry>
        <entry>
          <item>
            <reference value="urn:uuid:f1bef7de-47ed-4aa4-83cd-15414dffd811" />
          </item>
        </entry>
        <entry>
          <item>
            <reference value="urn:uuid:6951c2c5-36c7-4154-a0e7-f9b5af384772" />
          </item>
        </entry>
      </List>
    </resource>
  </entry>
  <entry>
    <fullUrl value="urn:uuid:1c7c6aa9-6f76-4ff8-a64c-28a82bf9cbdf" />
    <resource>
      <Location>
        <id value="urn:uuid:1c7c6aa9-6f76-4ff8-a64c-28a82bf9cbdf" />
        <meta>
          <profile value="http://www.hl7.org/fhir/us/vrdr/StructureDefinition/VRDR-Disposition-Location" />
        </meta>
        <name value="Bedford Cemetery" />
        <address>
          <line value="603 Example Street" />
          <line value="Line 2" />
          <city value="Bedford" />
          <district value="Middlesex" />
          <state value="Massachusetts" />
          <postalCode value="01730" />
          <country value="United States" />
        </address>
      </Location>
    </resource>
  </entry>
  <entry>
    <fullUrl value="urn:uuid:773e877a-bcd3-4065-b50e-641a4ca4e801" />
    <resource>
      <Observation>
        <id value="urn:uuid:773e877a-bcd3-4065-b50e-641a4ca4e801" />
        <meta>
          <profile value="http://www.hl7.org/fhir/us/vrdr/StructureDefinition/VRDR-Manner-of-Death" />
        </meta>
        <status value="final" />
        <code>
          <coding>
            <system value="http://loinc.org" />
            <code value="69449-7" />
            <display value="Manner of death" />
          </coding>
        </code>
        <subject>
          <reference value="urn:uuid:2ef69827-51e7-40f9-bee1-4319524f123b" />
        </subject>
        <performer>
          <reference value="urn:uuid:de7b784d-56cd-49b7-a8fe-6665006f1f5e" />
        </performer>
        <valueCodeableConcept>
          <coding>
            <code value="7878000" />
            <display value="Accident" />
          </coding>
        </valueCodeableConcept>
      </Observation>
    </resource>
  </entry>
  <entry>
    <fullUrl value="urn:uuid:7ba1af7d-e549-45c0-9d5e-b6fbe4fc416e" />
    <resource>
      <Condition>
        <id value="urn:uuid:7ba1af7d-e549-45c0-9d5e-b6fbe4fc416e" />
        <meta>
          <profile value="http://www.hl7.org/fhir/us/vrdr/StructureDefinition/VRDR-Condition-Contributing-To-Death" />
        </meta>
        <code>
          <text value="Example Contributing Conditions" />
        </code>
        <subject>
          <reference value="urn:uuid:2ef69827-51e7-40f9-bee1-4319524f123b" />
        </subject>
      </Condition>
    </resource>
  </entry>
  <entry>
    <fullUrl value="urn:uuid:8e318c96-96ac-4ff7-965a-1ae1137b0910" />
    <resource>
      <Condition>
        <id value="urn:uuid:8e318c96-96ac-4ff7-965a-1ae1137b0910" />
        <meta>
          <profile value="http://www.hl7.org/fhir/us/vrdr/StructureDefinition/VRDR-Cause-Of-Death-Condition" />
        </meta>
        <code>
          <coding>
            <system value="http://hl7.org/fhir/sid/icd-10" />
            <code value="I21.0" />
            <display value="Acute transmural myocardial infarction of anterior wall" />
          </coding>
          <text value="Rupture of myocardium" />
        </code>
        <subject>
          <reference value="urn:uuid:2ef69827-51e7-40f9-bee1-4319524f123b" />
        </subject>
        <onsetString value="minutes" />
        <asserter>
          <reference value="urn:uuid:de7b784d-56cd-49b7-a8fe-6665006f1f5e" />
        </asserter>
      </Condition>
    </resource>
  </entry>
  <entry>
    <fullUrl value="urn:uuid:d3b14ec7-fddc-43b0-a926-e42a12a19faf" />
    <resource>
      <Condition>
        <id value="urn:uuid:d3b14ec7-fddc-43b0-a926-e42a12a19faf" />
        <meta>
          <profile value="http://www.hl7.org/fhir/us/vrdr/StructureDefinition/VRDR-Cause-Of-Death-Condition" />
        </meta>
        <code>
          <coding>
            <system value="http://hl7.org/fhir/sid/icd-10" />
            <code value="I21.9" />
            <display value="Acute myocardial infarction, unspecified" />
          </coding>
          <text value="Acute myocardial infarction" />
        </code>
        <subject>
          <reference value="urn:uuid:2ef69827-51e7-40f9-bee1-4319524f123b" />
        </subject>
        <onsetString value="6 days" />
        <asserter>
          <reference value="urn:uuid:de7b784d-56cd-49b7-a8fe-6665006f1f5e" />
        </asserter>
      </Condition>
    </resource>
  </entry>
  <entry>
    <fullUrl value="urn:uuid:f1bef7de-47ed-4aa4-83cd-15414dffd811" />
    <resource>
      <Condition>
        <id value="urn:uuid:f1bef7de-47ed-4aa4-83cd-15414dffd811" />
        <meta>
          <profile value="http://www.hl7.org/fhir/us/vrdr/StructureDefinition/VRDR-Cause-Of-Death-Condition" />
        </meta>
        <code>
          <text value="Coronary artery thrombosis" />
        </code>
        <subject>
          <reference value="urn:uuid:2ef69827-51e7-40f9-bee1-4319524f123b" />
        </subject>
        <onsetString value="5 years" />
        <asserter>
          <reference value="urn:uuid:de7b784d-56cd-49b7-a8fe-6665006f1f5e" />
        </asserter>
      </Condition>
    </resource>
  </entry>
  <entry>
    <fullUrl value="urn:uuid:6951c2c5-36c7-4154-a0e7-f9b5af384772" />
    <resource>
      <Condition>
        <id value="urn:uuid:6951c2c5-36c7-4154-a0e7-f9b5af384772" />
        <meta>
          <profile value="http://www.hl7.org/fhir/us/vrdr/StructureDefinition/VRDR-Cause-Of-Death-Condition" />
        </meta>
        <code>
          <text value="Atherosclerotic coronary artery disease" />
        </code>
        <subject>
          <reference value="urn:uuid:2ef69827-51e7-40f9-bee1-4319524f123b" />
        </subject>
        <onsetString value="7 years" />
        <asserter>
          <reference value="urn:uuid:de7b784d-56cd-49b7-a8fe-6665006f1f5e" />
        </asserter>
      </Condition>
    </resource>
  </entry>
  <entry>
    <fullUrl value="urn:uuid:47189bb7-128e-417c-a76a-5988b7ffe8cf" />
    <resource>
      <RelatedPerson>
        <id value="urn:uuid:47189bb7-128e-417c-a76a-5988b7ffe8cf" />
        <meta>
          <profile value="http://www.hl7.org/fhir/us/vrdr/StructureDefinition/VRDR-Decedent-Father" />
        </meta>
        <patient>
          <reference value="urn:uuid:2ef69827-51e7-40f9-bee1-4319524f123b" />
        </patient>
        <relationship>
          <coding>
            <code value="FTH" />
          </coding>
        </relationship>
        <name>
          <family value="Last" />
          <given value="Father" />
          <given value="Middle" />
          <suffix value="Sr." />
        </name>
      </RelatedPerson>
    </resource>
  </entry>
  <entry>
    <fullUrl value="urn:uuid:688a1792-7be9-4359-a3ee-3fb309fbfddd" />
    <resource>
      <RelatedPerson>
        <id value="urn:uuid:688a1792-7be9-4359-a3ee-3fb309fbfddd" />
        <meta>
          <profile value="http://www.hl7.org/fhir/us/vrdr/StructureDefinition/VRDR-Decedent-Mother" />
        </meta>
        <patient>
          <reference value="urn:uuid:2ef69827-51e7-40f9-bee1-4319524f123b" />
        </patient>
        <relationship>
          <coding>
            <code value="MTH" />
          </coding>
        </relationship>
        <name>
          <family value="Maiden" />
          <given value="Mother" />
          <given value="Middle" />
          <suffix value="Dr." />
        </name>
      </RelatedPerson>
    </resource>
  </entry>
  <entry>
    <fullUrl value="urn:uuid:0c20e69c-d1fd-479d-b685-3407cdf62dbf" />
    <resource>
      <RelatedPerson>
        <id value="urn:uuid:0c20e69c-d1fd-479d-b685-3407cdf62dbf" />
        <meta>
          <profile value="http://www.hl7.org/fhir/us/vrdr/StructureDefinition/VRDR-Decedent-Spouse" />
        </meta>
        <patient>
          <reference value="urn:uuid:2ef69827-51e7-40f9-bee1-4319524f123b" />
        </patient>
        <relationship>
          <coding>
            <code value="SPS" />
          </coding>
        </relationship>
        <name>
          <family value="Last" />
          <given value="Spouse" />
          <given value="Middle" />
          <suffix value="Ph.D." />
        </name>
      </RelatedPerson>
    </resource>
  </entry>
  <entry>
    <fullUrl value="urn:uuid:0d5b06e3-c4fb-41e3-bf48-3781bf42e62f" />
    <resource>
      <Observation>
        <id value="urn:uuid:0d5b06e3-c4fb-41e3-bf48-3781bf42e62f" />
        <meta>
          <profile value="http://www.hl7.org/fhir/us/vrdr/StructureDefinition/VRDR-Decedent-Education-Level" />
        </meta>
        <status value="final" />
        <code>
          <coding>
            <system value="http://loinc.org" />
            <code value="80913-7" />
            <display value="Highest level of education" />
          </coding>
        </code>
        <subject>
          <reference value="urn:uuid:2ef69827-51e7-40f9-bee1-4319524f123b" />
        </subject>
        <valueCodeableConcept>
          <coding>
            <system value="http://hl7.org/fhir/v3/EducationLevel" />
            <code value="BD" />
            <display value="College or baccalaureate degree complete" />
          </coding>
        </valueCodeableConcept>
      </Observation>
    </resource>
  </entry>
  <entry>
    <fullUrl value="urn:uuid:9e271764-f02d-4b65-b75d-702253bbc8e6" />
    <resource>
      <Observation>
        <id value="urn:uuid:9e271764-f02d-4b65-b75d-702253bbc8e6" />
        <meta>
          <profile value="http://www.hl7.org/fhir/us/vrdr/StructureDefinition/VRDR-Birth-Record-Identifier" />
        </meta>
        <status value="final" />
        <code>
          <coding>
            <code value="BR" />
          </coding>
        </code>
        <subject>
          <reference value="urn:uuid:2ef69827-51e7-40f9-bee1-4319524f123b" />
        </subject>
        <valueString value="4242123" />
      </Observation>
    </resource>
  </entry>
  <entry>
    <fullUrl value="urn:uuid:4acfebf8-c836-4ba9-845f-29909246e631" />
    <resource>
      <Observation>
        <id value="urn:uuid:4acfebf8-c836-4ba9-845f-29909246e631" />
        <meta>
          <profile value="http://www.hl7.org/fhir/us/vrdr/StructureDefinition/VRDR-Decedent-Employment-History" />
        </meta>
        <status value="final" />
        <code>
          <coding>
            <system value="http://loinc.org" />
            <code value="74165-2" />
            <display value="History of employment status" />
          </coding>
        </code>
        <subject>
          <reference value="urn:uuid:2ef69827-51e7-40f9-bee1-4319524f123b" />
        </subject>
        <component>
          <code>
            <coding>
              <system value="http://loinc.org" />
              <code value="21847-9" />
              <display value="Usual occupation" />
            </coding>
          </code>
          <valueCodeableConcept>
            <coding>
              <system value="http://hl7.org/fhir/ValueSet/occupation-cdc-census-2010" />
              <code value="1340" />
              <display value="Biomedical engineers" />
            </coding>
          </valueCodeableConcept>
        </component>
        <component>
          <code>
            <coding>
              <system value="http://loinc.org" />
              <code value="21844-6" />
              <display value="Usual industry" />
            </coding>
          </code>
          <valueCodeableConcept>
            <coding>
              <system value="http://www.hl7.org/fhir/ValueSet/industry-cdc-census-2010" />
              <code value="7280" />
              <display value="Accounting, tax preparation, bookkeeping, and payroll services" />
            </coding>
          </valueCodeableConcept>
        </component>
        <component>
          <code>
            <coding>
              <system value="http://loinc.org" />
              <code value="55280-2" />
              <display value="Military service" />
            </coding>
          </code>
          <valueCodeableConcept>
            <coding>
              <system value="http://www.hl7.org/fhir/ValueSet/v2-0532" />
              <code value="Y" />
              <display value="Yes" />
            </coding>
          </valueCodeableConcept>
        </component>
      </Observation>
    </resource>
  </entry>
  <entry>
    <fullUrl value="urn:uuid:e33a9eed-6139-4f8a-8f09-ba37de89ed8f" />
    <resource>
      <Observation>
        <id value="urn:uuid:e33a9eed-6139-4f8a-8f09-ba37de89ed8f" />
        <meta>
          <profile value="http://www.hl7.org/fhir/us/vrdr/StructureDefinition/VRDR-Decedent-Disposition-Method" />
        </meta>
        <extension url="http://www.hl7.org/fhir/us/vrdr/StructureDefinition/VRDR-Disposition-Location">
          <valueReference>
            <reference value="urn:uuid:1c7c6aa9-6f76-4ff8-a64c-28a82bf9cbdf" />
          </valueReference>
        </extension>
        <status value="final" />
        <code>
          <coding>
            <system value="http://loinc.org" />
            <code value="80905-3" />
            <display value="Body disposition method" />
          </coding>
        </code>
        <subject>
          <reference value="urn:uuid:2ef69827-51e7-40f9-bee1-4319524f123b" />
        </subject>
        <performer>
          <reference value="urn:uuid:3076c531-9e84-4eaf-8102-86c10e5e020b" />
        </performer>
        <valueCodeableConcept>
          <coding>
            <system value="http://snomed.info/sct" />
            <code value="449971000124106" />
            <display value="Burial" />
          </coding>
        </valueCodeableConcept>
      </Observation>
    </resource>
  </entry>
  <entry>
    <fullUrl value="urn:uuid:c44182b6-b191-41d8-a090-011de72449a3" />
    <resource>
      <Observation>
        <id value="urn:uuid:c44182b6-b191-41d8-a090-011de72449a3" />
        <meta>
          <profile value="http://www.hl7.org/fhir/us/vrdr/StructureDefinition/VRDR-Autopsy-Performed-Indicator" />
        </meta>
        <status value="final" />
        <code>
          <coding>
            <system value="http://loinc.org" />
            <code value="85699-7" />
            <display value="Autopsy was performed" />
          </coding>
        </code>
        <subject>
          <reference value="urn:uuid:2ef69827-51e7-40f9-bee1-4319524f123b" />
        </subject>
        <valueCodeableConcept>
          <coding>
            <system value="http://www.hl7.org/fhir/ValueSet/v2-0532" />
            <code value="Y" />
            <display value="Yes" />
          </coding>
        </valueCodeableConcept>
        <component>
          <code>
            <coding>
              <system value="http://loinc.org" />
              <code value="69436-4" />
              <display value="Autopsy results available" />
            </coding>
          </code>
          <valueCodeableConcept>
            <coding>
              <system value="http://www.hl7.org/fhir/ValueSet/v2-0532" />
              <code value="Y" />
              <display value="Yes" />
            </coding>
          </valueCodeableConcept>
        </component>
      </Observation>
    </resource>
  </entry>
  <entry>
    <fullUrl value="urn:uuid:ff27ed42-4df3-43fb-b96e-06de0df4ff45" />
    <resource>
      <Observation>
        <id value="urn:uuid:ff27ed42-4df3-43fb-b96e-06de0df4ff45" />
        <meta>
          <profile value="http://www.hl7.org/fhir/us/vrdr/StructureDefinition/VRDR-Decedent-Age" />
        </meta>
        <status value="final" />
        <code>
          <coding>
            <system value="http://loinc.org" />
            <code value="30525-0" />
            <display value="Age" />
          </coding>
        </code>
        <subject>
          <reference value="urn:uuid:2ef69827-51e7-40f9-bee1-4319524f123b" />
        </subject>
        <valueQuantity>
          <value value="100" />
          <unit value="a" />
        </valueQuantity>
      </Observation>
    </resource>
  </entry>
  <entry>
    <fullUrl value="urn:uuid:773e159a-82e9-43dc-a246-81b7dd263596" />
    <resource>
      <Observation>
        <id value="urn:uuid:773e159a-82e9-43dc-a246-81b7dd263596" />
        <meta>
          <profile value="http://www.hl7.org/fhir/us/vrdr/StructureDefinition/VRDR-Decedent-Pregnancy" />
        </meta>
        <status value="final" />
        <code>
          <coding>
            <system value="http://loinc.org" />
            <code value="69442-2" />
            <display value="Timing of recent pregnancy in relation to death" />
          </coding>
        </code>
        <subject>
          <reference value="urn:uuid:2ef69827-51e7-40f9-bee1-4319524f123b" />
        </subject>
        <valueCodeableConcept>
          <coding>
            <system value="http://www.hl7.org/fhir/stu3/valueset-PregnancyStatusVS" />
            <code value="PHC1260" />
            <display value="Not pregnant within past year" />
          </coding>
        </valueCodeableConcept>
      </Observation>
    </resource>
  </entry>
  <entry>
    <fullUrl value="urn:uuid:5a3fdd48-b731-4cd5-869f-6146bcef6b50" />
    <resource>
      <Observation>
        <id value="urn:uuid:5a3fdd48-b731-4cd5-869f-6146bcef6b50" />
        <meta>
          <profile value="http://www.hl7.org/fhir/us/vrdr/StructureDefinition/VRDR-Decedent-Transportation-Role" />
        </meta>
        <status value="final" />
        <code>
          <coding>
            <system value="http://loinc.org" />
            <code value="69451-3" />
            <display value="Transportation role of decedent" />
          </coding>
        </code>
        <subject>
          <reference value="urn:uuid:2ef69827-51e7-40f9-bee1-4319524f123b" />
        </subject>
        <valueCodeableConcept>
          <coding>
            <system value="http://www.hl7.org/fhir/stu3/valueset-TransportationRelationships" />
            <code value="example-code" />
            <display value="Example Code" />
          </coding>
        </valueCodeableConcept>
      </Observation>
    </resource>
  </entry>
  <entry>
    <fullUrl value="urn:uuid:34088e6f-9224-4f15-9a86-7007bd5388c9" />
    <resource>
      <Observation>
        <id value="urn:uuid:34088e6f-9224-4f15-9a86-7007bd5388c9" />
        <meta>
          <profile value="http://www.hl7.org/fhir/us/vrdr/StructureDefinition/VRDR-Examiner-Contacted" />
        </meta>
        <status value="final" />
        <code>
          <coding>
            <system value="http://loinc.org" />
            <code value="74497-9" />
            <display value="Medical examiner or coroner was contacted" />
          </coding>
        </code>
        <subject>
          <reference value="urn:uuid:2ef69827-51e7-40f9-bee1-4319524f123b" />
        </subject>
        <valueBoolean value="false" />
      </Observation>
    </resource>
  </entry>
  <entry>
    <fullUrl value="urn:uuid:db8a0e2d-f66e-42f2-8f42-eee7215bdc52" />
    <resource>
      <Observation>
        <id value="urn:uuid:db8a0e2d-f66e-42f2-8f42-eee7215bdc52" />
        <meta>
          <profile value="http://www.hl7.org/fhir/us/vrdr/StructureDefinition/VRDR-Tobacco-Use-Contributed-To-Death" />
        </meta>
        <status value="final" />
        <code>
          <coding>
            <system value="http://loinc.org" />
            <code value="69443-0" />
            <display value="Did tobacco use contribute to death" />
          </coding>
        </code>
        <subject>
          <reference value="urn:uuid:2ef69827-51e7-40f9-bee1-4319524f123b" />
        </subject>
        <valueCodeableConcept>
          <coding>
            <system value="http://www.hl7.org/fhir/ValueSet/v2-0532" />
            <code value="Y" />
            <display value="Yes" />
          </coding>
        </valueCodeableConcept>
      </Observation>
    </resource>
  </entry>
  <entry>
    <fullUrl value="urn:uuid:0b285905-4153-4064-8f94-c175dcc7d8ac" />
    <resource>
      <Location>
        <id value="urn:uuid:0b285905-4153-4064-8f94-c175dcc7d8ac" />
        <meta>
          <profile value="http://www.hl7.org/fhir/us/vrdr/StructureDefinition/VRDR-Injury-Location" />
        </meta>
        <name value="Example Injury Location Name" />
        <description value="Example Injury Location Description" />
        <address>
          <line value="781 Example Street" />
          <line value="Line 2" />
          <city value="Bedford" />
          <district value="Middlesex" />
          <state value="Massachusetts" />
          <postalCode value="01730" />
          <country value="United States" />
        </address>
      </Location>
    </resource>
  </entry>
  <entry>
    <fullUrl value="urn:uuid:bb6d46d6-2b3d-469e-9a45-5903d9b2dec7" />
    <resource>
      <Observation>
        <id value="urn:uuid:bb6d46d6-2b3d-469e-9a45-5903d9b2dec7" />
        <meta>
          <profile value="http://www.hl7.org/fhir/us/vrdr/StructureDefinition/VRDR-Injury-Incident" />
        </meta>
        <status value="final" />
        <code>
          <coding>
            <system value="http://loinc.org" />
            <code value="11374-6" />
            <display value="Injury incident description" />
          </coding>
        </code>
        <subject>
          <reference value="urn:uuid:2ef69827-51e7-40f9-bee1-4319524f123b" />
        </subject>
        <effectiveDateTime value="2018-02-19T16:48:06.4988220-05:00" />
      </Observation>
    </resource>
  </entry>
  <entry>
    <fullUrl value="urn:uuid:ddb0b505-c99c-42fd-a1ce-bf32ff20c329" />
    <resource>
      <Location>
        <id value="urn:uuid:ddb0b505-c99c-42fd-a1ce-bf32ff20c329" />
        <meta>
          <profile value="http://www.hl7.org/fhir/us/vrdr/StructureDefinition/VRDR-Death-Location" />
        </meta>
        <name value="Example Death Location Name" />
        <description value="Example Death Location Description" />
        <address>
          <line value="671 Example Street" />
          <line value="Line 2" />
          <city value="Bedford" />
          <district value="Middlesex" />
          <state value="Massachusetts" />
          <postalCode value="01730" />
          <country value="United States" />
        </address>
      </Location>
    </resource>
  </entry>
  <entry>
    <fullUrl value="urn:uuid:bb2809be-1dd4-47e3-9b86-f6ca8b8440d9" />
    <resource>
      <Observation>
        <id value="urn:uuid:bb2809be-1dd4-47e3-9b86-f6ca8b8440d9" />
        <meta>
          <profile value="http://www.hl7.org/fhir/us/vrdr/StructureDefinition/VRDR-Death-Date" />
        </meta>
        <status value="final" />
        <code>
          <coding>
            <system value="http://loinc.org" />
            <code value="81956-5" />
            <display value="Date and time of death" />
          </coding>
        </code>
        <subject>
          <reference value="urn:uuid:2ef69827-51e7-40f9-bee1-4319524f123b" />
        </subject>
        <effectiveDateTime value="2018-02-19T16:48:06.4988220-05:00" />
        <performer>
          <reference value="urn:uuid:de7b784d-56cd-49b7-a8fe-6665006f1f5e" />
        </performer>
        <component>
          <code>
            <coding>
              <system value="http://loinc.org" />
              <code value="80616-6" />
              <display value="Date and time pronounced dead" />
            </coding>
          </code>
          <valueDateTime value="2018-02-20T16:48:06.4988220-05:00" />
        </component>
      </Observation>
    </resource>
  </entry>
</Bundle>


