<Bundle xmlns="http://hl7.org/fhir">
  <id value="urn:uuid:5ca0dc37-c6ae-4896-a497-0863c92c089e" />
  <meta>
    <profile value="http://www.hl7.org/fhir/us/vrdr/StructureDefinition/VRDR-Death-Certificate-Document" />
  </meta>
  <identifier>
    <value value="42" />
  </identifier>
  <type value="document" />
  <entry>
    <fullUrl value="urn:uuid:e35bc503-0851-470a-8403-71ca32410557" />
    <resource>
      <Composition>
        <id value="urn:uuid:e35bc503-0851-470a-8403-71ca32410557" />
        <meta>
          <profile value="http://www.hl7.org/fhir/us/vrdr/StructureDefinition/VRDR-Death-Certificate" />
        </meta>
        <identifier>
          <value value="1" />
        </identifier>
        <status value="final" />
        <type>
          <coding>
            <system value="http://loinc.org" />
            <code value="64297-5" />
            <display value="Death certificate" />
          </coding>
        </type>
        <subject>
          <reference value="urn:uuid:65ee7d6c-6b33-4862-8f9a-0c82acf53841" />
        </subject>
        <date value="2019-01-20T16:47:04.4988220-05:00" />
        <attester>
          <mode value="legal" />
          <time value="2019-01-29T16:48:06.4988220-05:00" />
          <party>
            <reference value="urn:uuid:19197ab0-863b-4107-87aa-90f2d6dc3807" />
          </party>
        </attester>
        <event>
          <code>
            <coding>
              <system value="http://snomed.info/sct" />
              <code value="103693007" />
              <display value="Diagnostic procedure" />
            </coding>
          </code>
          <detail>
            <reference value="urn:uuid:18695de5-03a4-4f1a-a2ee-b4940f41b5a3" />
          </detail>
        </event>
        <section>
          <entry>
            <reference value="urn:uuid:65ee7d6c-6b33-4862-8f9a-0c82acf53841" />
          </entry>
          <entry>
            <reference value="urn:uuid:19197ab0-863b-4107-87aa-90f2d6dc3807" />
          </entry>
          <entry>
            <reference value="urn:uuid:52e757b8-d084-41f7-af5e-c8dbc0aafe52" />
          </entry>
          <entry>
            <reference value="urn:uuid:18695de5-03a4-4f1a-a2ee-b4940f41b5a3" />
          </entry>
          <entry>
            <reference value="urn:uuid:7d7cb38a-7108-4d58-a2c4-8149f70457a9" />
          </entry>
          <entry>
            <reference value="urn:uuid:2b2c215b-19bc-445d-b043-663220ffd0a0" />
          </entry>
          <entry>
            <reference value="urn:uuid:3f99cf03-ea80-457a-9cf2-ad2866e7aa42" />
          </entry>
          <entry>
            <reference value="urn:uuid:cdbfcca5-903a-40cc-abdc-d93241b6ddb1" />
          </entry>
          <entry>
            <reference value="urn:uuid:c2063322-7438-43e0-aa4d-482130e6a7bb" />
          </entry>
          <entry>
            <reference value="urn:uuid:a296d8fb-d93b-4874-bee8-7d8b76402240" />
          </entry>
          <entry>
            <reference value="urn:uuid:07a18360-58af-43b2-87a9-fb5d40a2963b" />
          </entry>
          <entry>
            <reference value="urn:uuid:6aa96ef9-2ee7-4dae-aed8-91c3f70ab2e2" />
          </entry>
          <entry>
            <reference value="urn:uuid:816ad043-1d10-465a-8b8c-6e98206dc810" />
          </entry>
          <entry>
            <reference value="urn:uuid:479d13dc-e386-4999-a5dc-18ddf530f2d8" />
          </entry>
          <entry>
            <reference value="urn:uuid:a1d4c254-9b20-46fa-8b0b-c75a84dceba9" />
          </entry>
          <entry>
            <reference value="urn:uuid:043cf042-83b8-4a49-8361-08890da93b2e" />
          </entry>
          <entry>
            <reference value="urn:uuid:4f8cde98-c60c-4887-b824-b9b76ecffe6d" />
          </entry>
          <entry>
            <reference value="urn:uuid:b115ff9b-2c5f-4506-b82a-97b1ee58d4fa" />
          </entry>
          <entry>
            <reference value="urn:uuid:e99b5724-6af4-42a6-b04e-47eefad5b32e" />
          </entry>
          <entry>
            <reference value="urn:uuid:f363d0be-11d0-4420-93ad-dd55af1ed6c3" />
          </entry>
          <entry>
            <reference value="urn:uuid:8625b496-2f44-4129-ab38-6e5535245b26" />
          </entry>
          <entry>
            <reference value="urn:uuid:659136b0-ba76-4fad-822b-2ee15726a770" />
          </entry>
          <entry>
            <reference value="urn:uuid:242247a3-eb83-423a-b7c9-8798767cdf6c" />
          </entry>
          <entry>
            <reference value="urn:uuid:cee50519-54be-4c82-ab63-47666b2eb1b1" />
          </entry>
          <entry>
            <reference value="urn:uuid:ff5ef7f7-27ee-4c32-b223-78b89412637f" />
          </entry>
          <entry>
            <reference value="urn:uuid:1b62f1f6-59de-428d-b405-67acd5a81291" />
          </entry>
          <entry>
            <reference value="urn:uuid:759b033d-9021-465b-afa7-f26baa9c31c3" />
          </entry>
          <entry>
            <reference value="urn:uuid:9f3e3124-3e87-4a27-9b10-fba331549ca4" />
          </entry>
          <entry>
            <reference value="urn:uuid:7fe8e8e7-28b5-4ec1-9062-0b3a4594b5ac" />
          </entry>
          <entry>
            <reference value="urn:uuid:5dfbfbc2-c6da-4c31-ac04-000e49522a37" />
          </entry>
          <entry>
            <reference value="urn:uuid:f753f4e1-68ca-474b-baf7-9697f30cb558" />
          </entry>
          <entry>
            <reference value="urn:uuid:5f5efca1-d8ac-4846-bc3c-bb918ca05dc6" />
          </entry>
        </section>
      </Composition>
    </resource>
  </entry>
  <entry>
    <fullUrl value="urn:uuid:65ee7d6c-6b33-4862-8f9a-0c82acf53841" />
    <resource>
      <Patient>
        <id value="urn:uuid:65ee7d6c-6b33-4862-8f9a-0c82acf53841" />
        <meta>
          <profile value="http://www.hl7.org/fhir/us/vrdr/StructureDefinition/VRDR-Decedent" />
        </meta>
        <extension url="http://hl7.org/fhir/us/core/StructureDefinition/us-core-birthsex">
          <valueCodeableConcept>
            <coding>
              <system value="http://hl7.org/fhir/us/core/ValueSet/us-core-birthsex" />
              <code value="M" />
              <display value="Male" />
            </coding>
          </valueCodeableConcept>
        </extension>
        <extension url="http://hl7.org/fhir/us/core/StructureDefinition/us-core-ethnicity">
          <extension url="text">
            <valueString value="Hispanic or Latino" />
          </extension>
          <extension url="ombCategory">
            <valueCoding>
              <system value="urn:oid:2.16.840.1.113883.6.238" />
              <code value="2135-2" />
              <display value="Hispanic or Latino" />
            </valueCoding>
          </extension>
          <extension url="text">
            <valueString value="Puerto Rican" />
          </extension>
          <extension url="detailed">
            <valueCoding>
              <system value="urn:oid:2.16.840.1.113883.6.238" />
              <code value="2180-8" />
              <display value="Puerto Rican" />
            </valueCoding>
          </extension>
        </extension>
        <extension url="http://hl7.org/fhir/us/core/StructureDefinition/us-core-race">
          <extension url="text">
            <valueString value="White" />
          </extension>
          <extension url="ombCategory">
            <valueCoding>
              <system value="urn:oid:2.16.840.1.113883.6.238" />
              <code value="2106-3" />
              <display value="White" />
            </valueCoding>
          </extension>
          <extension url="text">
            <valueString value="Native Hawaiian or Other Pacific Islander" />
          </extension>
          <extension url="ombCategory">
            <valueCoding>
              <system value="urn:oid:2.16.840.1.113883.6.238" />
              <code value="2076-8" />
              <display value="Native Hawaiian or Other Pacific Islander" />
            </valueCoding>
          </extension>
        </extension>
        <extension url="http://www.hl7.org/fhir/StructureDefinition/birthPlace">
          <valueAddress>
            <line value="1011 Example Street" />
            <line value="Line 2" />
            <city value="Bedford" />
            <district value="Middlesex" />
            <state value="Massachusetts" />
            <postalCode value="01730" />
            <country value="United States" />
          </valueAddress>
        </extension>
        <identifier>
          <type>
            <coding>
              <code value="BR" />
              <display value="Social Beneficiary Identifier" />
            </coding>
          </type>
          <system value="http://hl7.org/fhir/sid/us-ssn" />
          <value value="123456789" />
        </identifier>
        <name>
          <use value="official" />
          <family value="Last" />
          <given value="Example" />
          <given value="Something" />
          <given value="Middle" />
          <suffix value="Jr." />
        </name>
        <gender value="male" />
        <birthDate value="1940-02-19T16:48:06.4988220-05:00" />
        <address>
          <line value="101 Example Street" />
          <line value="Line 2" />
          <city value="Bedford" />
          <district value="Middlesex" />
          <state value="Massachusetts" />
          <postalCode value="01730" />
          <country value="United States" />
        </address>
        <maritalStatus>
          <coding>
            <system value="http://hl7.org/fhir/v3/MaritalStatus" />
            <code value="S" />
            <display value="Never Married" />
          </coding>
        </maritalStatus>
      </Patient>
    </resource>
  </entry>
  <entry>
    <fullUrl value="urn:uuid:19197ab0-863b-4107-87aa-90f2d6dc3807" />
    <resource>
      <Practitioner>
        <id value="urn:uuid:19197ab0-863b-4107-87aa-90f2d6dc3807" />
        <meta>
          <profile value="http://www.hl7.org/fhir/us/vrdr/StructureDefinition/VRDR-Certifier" />
        </meta>
        <name>
          <use value="official" />
          <family value="Last" />
          <given value="Doctor" />
          <given value="Middle" />
          <suffix value="Jr." />
        </name>
        <address>
          <line value="11 Example Street" />
          <line value="Line 2" />
          <city value="Bedford" />
          <district value="Middlesex" />
          <state value="Massachusetts" />
          <postalCode value="01730" />
          <country value="United States" />
        </address>
        <qualification>
          <code>
            <coding>
              <system value="http://hl7.org/fhir/v2/0360/2.7" />
              <code value="MD" />
              <display value="Doctor of Medicine" />
            </coding>
          </code>
        </qualification>
      </Practitioner>
    </resource>
  </entry>
  <entry>
    <fullUrl value="urn:uuid:52e757b8-d084-41f7-af5e-c8dbc0aafe52" />
    <resource>
      <Practitioner>
        <id value="urn:uuid:52e757b8-d084-41f7-af5e-c8dbc0aafe52" />
        <meta>
          <profile value="http://www.hl7.org/fhir/us/vrdr/StructureDefinition/VRDR-Mortician" />
        </meta>
        <name>
          <use value="official" />
          <family value="Last" />
          <given value="FD" />
          <given value="Middle" />
          <suffix value="Jr." />
        </name>
        <qualification>
          <identifier>
            <value value="9876543210" />
          </identifier>
        </qualification>
      </Practitioner>
    </resource>
  </entry>
  <entry>
    <fullUrl value="urn:uuid:18695de5-03a4-4f1a-a2ee-b4940f41b5a3" />
    <resource>
      <Procedure>
        <id value="urn:uuid:18695de5-03a4-4f1a-a2ee-b4940f41b5a3" />
        <meta>
          <profile value="http://www.hl7.org/fhir/us/vrdr/StructureDefinition/VRDR-Death-Certification" />
        </meta>
        <status value="completed" />
        <category>
          <coding>
            <system value="http://snomed.info/sct" />
            <code value="103693007" />
            <display value="Diagnostic procedure" />
          </coding>
        </category>
        <code>
          <coding>
            <system value="http://snomed.info/sct" />
            <code value="308646001" />
            <display value="Death certification" />
          </coding>
        </code>
        <performedString value="2019-01-29T16:48:06.4988220-05:00" />
        <performer>
          <role>
            <coding>
              <system value="http://snomed.info/sct" />
              <code value="309343006" />
              <display value="Physician" />
            </coding>
          </role>
          <actor>
            <reference value="urn:uuid:19197ab0-863b-4107-87aa-90f2d6dc3807" />
          </actor>
        </performer>
      </Procedure>
    </resource>
  </entry>
  <entry>
    <fullUrl value="urn:uuid:7d7cb38a-7108-4d58-a2c4-8149f70457a9" />
    <resource>
      <Organization>
        <id value="urn:uuid:7d7cb38a-7108-4d58-a2c4-8149f70457a9" />
        <meta>
          <profile value="http://www.hl7.org/fhir/us/vrdr/StructureDefinition/VRDR-Interested-Party" />
        </meta>
        <identifier>
          <value value="1010101" />
        </identifier>
        <active value="true" />
        <type>
          <coding>
            <system value="http://terminology.hl7.org/CodeSystem/organization-type" />
            <code value="prov" />
            <display value="Healthcare Provider" />
          </coding>
        </type>
        <name value="Example Hospital" />
        <address>
          <line value="10 Example Street" />
          <line value="Line 2" />
          <city value="Bedford" />
          <district value="Middlesex" />
          <state value="Massachusetts" />
          <postalCode value="01730" />
          <country value="United States" />
        </address>
      </Organization>
    </resource>
  </entry>
  <entry>
    <fullUrl value="urn:uuid:2b2c215b-19bc-445d-b043-663220ffd0a0" />
    <resource>
      <Organization>
        <id value="urn:uuid:2b2c215b-19bc-445d-b043-663220ffd0a0" />
        <meta>
          <profile value="http://www.hl7.org/fhir/us/vrdr/StructureDefinition/VRDR-Funeral-Home" />
        </meta>
        <type>
          <coding>
            <code value="bus" />
            <display value="Non-Healthcare Business or Corporation" />
          </coding>
        </type>
        <name value="Smith Funeral Home" />
        <address>
          <line value="1011010 Example Street" />
          <line value="Line 2" />
          <city value="Bedford" />
          <district value="Middlesex" />
          <state value="Massachusetts" />
          <postalCode value="01730" />
          <country value="United States" />
        </address>
      </Organization>
    </resource>
  </entry>
  <entry>
    <fullUrl value="urn:uuid:3f99cf03-ea80-457a-9cf2-ad2866e7aa42" />
    <resource>
      <PractitionerRole>
        <id value="urn:uuid:3f99cf03-ea80-457a-9cf2-ad2866e7aa42" />
        <meta>
          <profile value="http://www.hl7.org/fhir/us/vrdr/StructureDefinition/VRDR-Funeral-Home-Director" />
        </meta>
        <practitioner>
          <reference value="urn:uuid:52e757b8-d084-41f7-af5e-c8dbc0aafe52" />
        </practitioner>
        <organization>
          <reference value="urn:uuid:2b2c215b-19bc-445d-b043-663220ffd0a0" />
        </organization>
      </PractitionerRole>
    </resource>
  </entry>
  <entry>
    <fullUrl value="urn:uuid:cdbfcca5-903a-40cc-abdc-d93241b6ddb1" />
    <resource>
      <List>
        <id value="urn:uuid:cdbfcca5-903a-40cc-abdc-d93241b6ddb1" />
        <meta>
          <profile value="http://www.hl7.org/fhir/us/vrdr/StructureDefinition/VRDR-Cause-of-Death-Pathway" />
        </meta>
        <status value="current" />
        <mode value="snapshot" />
        <source>
          <reference value="urn:uuid:19197ab0-863b-4107-87aa-90f2d6dc3807" />
        </source>
        <orderedBy>
          <coding>
            <code value="priority" />
          </coding>
        </orderedBy>
        <entry>
          <item>
            <reference value="urn:uuid:6aa96ef9-2ee7-4dae-aed8-91c3f70ab2e2" />
          </item>
        </entry>
        <entry>
          <item>
            <reference value="urn:uuid:816ad043-1d10-465a-8b8c-6e98206dc810" />
          </item>
        </entry>
        <entry>
          <item>
            <reference value="urn:uuid:479d13dc-e386-4999-a5dc-18ddf530f2d8" />
          </item>
        </entry>
        <entry>
          <item>
            <reference value="urn:uuid:a1d4c254-9b20-46fa-8b0b-c75a84dceba9" />
          </item>
        </entry>
      </List>
    </resource>
  </entry>
  <entry>
    <fullUrl value="urn:uuid:c2063322-7438-43e0-aa4d-482130e6a7bb" />
    <resource>
      <Location>
        <id value="urn:uuid:c2063322-7438-43e0-aa4d-482130e6a7bb" />
        <meta>
          <profile value="http://www.hl7.org/fhir/us/vrdr/StructureDefinition/VRDR-Disposition-Location" />
        </meta>
        <name value="Bedford Cemetery" />
        <address>
          <line value="603 Example Street" />
          <line value="Line 2" />
          <city value="Bedford" />
          <district value="Middlesex" />
          <state value="Massachusetts" />
          <postalCode value="01730" />
          <country value="United States" />
        </address>
      </Location>
    </resource>
  </entry>
  <entry>
    <fullUrl value="urn:uuid:a296d8fb-d93b-4874-bee8-7d8b76402240" />
    <resource>
      <Observation>
        <id value="urn:uuid:a296d8fb-d93b-4874-bee8-7d8b76402240" />
        <meta>
          <profile value="http://www.hl7.org/fhir/us/vrdr/StructureDefinition/VRDR-Manner-of-Death" />
        </meta>
        <status value="final" />
        <code>
          <coding>
            <system value="http://loinc.org" />
            <code value="69449-7" />
            <display value="Manner of death" />
          </coding>
        </code>
        <subject>
          <reference value="urn:uuid:65ee7d6c-6b33-4862-8f9a-0c82acf53841" />
        </subject>
        <performer>
          <reference value="urn:uuid:19197ab0-863b-4107-87aa-90f2d6dc3807" />
        </performer>
        <valueCodeableConcept>
          <coding>
            <code value="7878000" />
            <display value="Accident" />
          </coding>
        </valueCodeableConcept>
      </Observation>
    </resource>
  </entry>
  <entry>
    <fullUrl value="urn:uuid:07a18360-58af-43b2-87a9-fb5d40a2963b" />
    <resource>
      <Condition>
        <id value="urn:uuid:07a18360-58af-43b2-87a9-fb5d40a2963b" />
        <meta>
          <profile value="http://www.hl7.org/fhir/us/vrdr/StructureDefinition/VRDR-Condition-Contributing-To-Death" />
        </meta>
        <code>
          <text value="Example Contributing Conditions" />
        </code>
        <subject>
          <reference value="urn:uuid:65ee7d6c-6b33-4862-8f9a-0c82acf53841" />
        </subject>
      </Condition>
    </resource>
  </entry>
  <entry>
    <fullUrl value="urn:uuid:6aa96ef9-2ee7-4dae-aed8-91c3f70ab2e2" />
    <resource>
      <Condition>
        <id value="urn:uuid:6aa96ef9-2ee7-4dae-aed8-91c3f70ab2e2" />
        <meta>
          <profile value="http://www.hl7.org/fhir/us/vrdr/StructureDefinition/VRDR-Cause-Of-Death-Condition" />
        </meta>
        <code>
          <coding>
            <system value="http://hl7.org/fhir/sid/icd-10" />
            <code value="I21.0" />
            <display value="Acute transmural myocardial infarction of anterior wall" />
          </coding>
          <text value="Rupture of myocardium" />
        </code>
        <subject>
          <reference value="urn:uuid:65ee7d6c-6b33-4862-8f9a-0c82acf53841" />
        </subject>
        <onsetString value="minutes" />
        <asserter>
          <reference value="urn:uuid:19197ab0-863b-4107-87aa-90f2d6dc3807" />
        </asserter>
      </Condition>
    </resource>
  </entry>
  <entry>
    <fullUrl value="urn:uuid:816ad043-1d10-465a-8b8c-6e98206dc810" />
    <resource>
      <Condition>
        <id value="urn:uuid:816ad043-1d10-465a-8b8c-6e98206dc810" />
        <meta>
          <profile value="http://www.hl7.org/fhir/us/vrdr/StructureDefinition/VRDR-Cause-Of-Death-Condition" />
        </meta>
        <code>
          <coding>
            <system value="http://hl7.org/fhir/sid/icd-10" />
            <code value="I21.9" />
            <display value="Acute myocardial infarction, unspecified" />
          </coding>
          <text value="Acute myocardial infarction" />
        </code>
        <subject>
          <reference value="urn:uuid:65ee7d6c-6b33-4862-8f9a-0c82acf53841" />
        </subject>
        <onsetString value="6 days" />
        <asserter>
          <reference value="urn:uuid:19197ab0-863b-4107-87aa-90f2d6dc3807" />
        </asserter>
      </Condition>
    </resource>
  </entry>
  <entry>
    <fullUrl value="urn:uuid:479d13dc-e386-4999-a5dc-18ddf530f2d8" />
    <resource>
      <Condition>
        <id value="urn:uuid:479d13dc-e386-4999-a5dc-18ddf530f2d8" />
        <meta>
          <profile value="http://www.hl7.org/fhir/us/vrdr/StructureDefinition/VRDR-Cause-Of-Death-Condition" />
        </meta>
        <code>
          <text value="Coronary artery thrombosis" />
        </code>
        <subject>
          <reference value="urn:uuid:65ee7d6c-6b33-4862-8f9a-0c82acf53841" />
        </subject>
        <onsetString value="5 years" />
        <asserter>
          <reference value="urn:uuid:19197ab0-863b-4107-87aa-90f2d6dc3807" />
        </asserter>
      </Condition>
    </resource>
  </entry>
  <entry>
    <fullUrl value="urn:uuid:a1d4c254-9b20-46fa-8b0b-c75a84dceba9" />
    <resource>
      <Condition>
        <id value="urn:uuid:a1d4c254-9b20-46fa-8b0b-c75a84dceba9" />
        <meta>
          <profile value="http://www.hl7.org/fhir/us/vrdr/StructureDefinition/VRDR-Cause-Of-Death-Condition" />
        </meta>
        <code>
          <text value="Atherosclerotic coronary artery disease" />
        </code>
        <subject>
          <reference value="urn:uuid:65ee7d6c-6b33-4862-8f9a-0c82acf53841" />
        </subject>
        <onsetString value="7 years" />
        <asserter>
          <reference value="urn:uuid:19197ab0-863b-4107-87aa-90f2d6dc3807" />
        </asserter>
      </Condition>
    </resource>
  </entry>
  <entry>
    <fullUrl value="urn:uuid:043cf042-83b8-4a49-8361-08890da93b2e" />
    <resource>
      <RelatedPerson>
        <id value="urn:uuid:043cf042-83b8-4a49-8361-08890da93b2e" />
        <meta>
          <profile value="http://www.hl7.org/fhir/us/vrdr/StructureDefinition/VRDR-Decedent-Father" />
        </meta>
        <patient>
          <reference value="urn:uuid:65ee7d6c-6b33-4862-8f9a-0c82acf53841" />
        </patient>
        <relationship>
          <coding>
            <code value="FTH" />
          </coding>
        </relationship>
        <name>
          <family value="Last" />
          <given value="Father" />
          <given value="Middle" />
          <suffix value="Sr." />
        </name>
      </RelatedPerson>
    </resource>
  </entry>
  <entry>
    <fullUrl value="urn:uuid:4f8cde98-c60c-4887-b824-b9b76ecffe6d" />
    <resource>
      <RelatedPerson>
        <id value="urn:uuid:4f8cde98-c60c-4887-b824-b9b76ecffe6d" />
        <meta>
          <profile value="http://www.hl7.org/fhir/us/vrdr/StructureDefinition/VRDR-Decedent-Mother" />
        </meta>
        <patient>
          <reference value="urn:uuid:65ee7d6c-6b33-4862-8f9a-0c82acf53841" />
        </patient>
        <relationship>
          <coding>
            <code value="MTH" />
          </coding>
        </relationship>
        <name>
          <family value="Maiden" />
          <given value="Mother" />
          <given value="Middle" />
          <suffix value="Dr." />
        </name>
      </RelatedPerson>
    </resource>
  </entry>
  <entry>
    <fullUrl value="urn:uuid:b115ff9b-2c5f-4506-b82a-97b1ee58d4fa" />
    <resource>
      <RelatedPerson>
        <id value="urn:uuid:b115ff9b-2c5f-4506-b82a-97b1ee58d4fa" />
        <meta>
          <profile value="http://www.hl7.org/fhir/us/vrdr/StructureDefinition/VRDR-Decedent-Spouse" />
        </meta>
        <patient>
          <reference value="urn:uuid:65ee7d6c-6b33-4862-8f9a-0c82acf53841" />
        </patient>
        <relationship>
          <coding>
            <code value="SPS" />
          </coding>
        </relationship>
        <name>
          <family value="Last" />
          <given value="Spouse" />
          <given value="Middle" />
          <suffix value="Ph.D." />
        </name>
      </RelatedPerson>
    </resource>
  </entry>
  <entry>
    <fullUrl value="urn:uuid:e99b5724-6af4-42a6-b04e-47eefad5b32e" />
    <resource>
      <Observation>
        <id value="urn:uuid:e99b5724-6af4-42a6-b04e-47eefad5b32e" />
        <meta>
          <profile value="http://www.hl7.org/fhir/us/vrdr/StructureDefinition/VRDR-Decedent-Education-Level" />
        </meta>
        <status value="final" />
        <code>
          <coding>
            <system value="http://loinc.org" />
            <code value="80913-7" />
            <display value="Highest level of education" />
          </coding>
        </code>
        <subject>
          <reference value="urn:uuid:65ee7d6c-6b33-4862-8f9a-0c82acf53841" />
        </subject>
        <valueCodeableConcept>
          <coding>
            <system value="http://hl7.org/fhir/v3/EducationLevel" />
            <code value="BD" />
            <display value="College or baccalaureate degree complete" />
          </coding>
        </valueCodeableConcept>
      </Observation>
    </resource>
  </entry>
  <entry>
    <fullUrl value="urn:uuid:f363d0be-11d0-4420-93ad-dd55af1ed6c3" />
    <resource>
      <Observation>
        <id value="urn:uuid:f363d0be-11d0-4420-93ad-dd55af1ed6c3" />
        <meta>
          <profile value="http://www.hl7.org/fhir/us/vrdr/StructureDefinition/VRDR-Birth-Record-Identifier" />
        </meta>
        <status value="final" />
        <code>
          <coding>
            <code value="BR" />
          </coding>
        </code>
        <subject>
          <reference value="urn:uuid:65ee7d6c-6b33-4862-8f9a-0c82acf53841" />
        </subject>
        <valueString value="4242123" />
      </Observation>
    </resource>
  </entry>
  <entry>
    <fullUrl value="urn:uuid:8625b496-2f44-4129-ab38-6e5535245b26" />
    <resource>
      <Observation>
        <id value="urn:uuid:8625b496-2f44-4129-ab38-6e5535245b26" />
        <meta>
          <profile value="http://www.hl7.org/fhir/us/vrdr/StructureDefinition/VRDR-Decedent-Employment-History" />
        </meta>
        <status value="final" />
        <code>
          <coding>
            <system value="http://loinc.org" />
            <code value="74165-2" />
            <display value="History of employment status" />
          </coding>
        </code>
        <subject>
          <reference value="urn:uuid:65ee7d6c-6b33-4862-8f9a-0c82acf53841" />
        </subject>
        <component>
          <code>
            <coding>
              <system value="http://loinc.org" />
              <code value="21847-9" />
              <display value="Usual occupation" />
            </coding>
          </code>
          <valueCodeableConcept>
            <coding>
              <system value="http://www.hl7.org/fhir/ValueSet/Usual-occupation" />
              <code value="7280" />
              <display value="Accounting, tax preparation, bookkeeping, and payroll services" />
            </coding>
          </valueCodeableConcept>
        </component>
        <component>
          <code>
            <coding>
              <system value="http://loinc.org" />
              <code value="21844-6" />
              <display value="Usual industry" />
            </coding>
          </code>
          <valueCodeableConcept>
            <coding>
              <system value="http://www.hl7.org/fhir/ValueSet/industry-cdc-census-2010" />
              <code value="1320" />
              <display value="Aerospace engineers" />
            </coding>
          </valueCodeableConcept>
        </component>
        <component>
          <code>
            <coding>
              <system value="http://loinc.org" />
              <code value="55280-2" />
              <display value="Military service" />
            </coding>
          </code>
          <valueCodeableConcept>
            <coding>
              <system value="http://www.hl7.org/fhir/ValueSet/v2-0532" />
              <code value="Y" />
              <display value="Yes" />
            </coding>
          </valueCodeableConcept>
        </component>
      </Observation>
    </resource>
  </entry>
  <entry>
    <fullUrl value="urn:uuid:659136b0-ba76-4fad-822b-2ee15726a770" />
    <resource>
      <Observation>
        <id value="urn:uuid:659136b0-ba76-4fad-822b-2ee15726a770" />
        <meta>
          <profile value="http://www.hl7.org/fhir/us/vrdr/StructureDefinition/VRDR-Decedent-Disposition-Method" />
        </meta>
        <extension url="http://www.hl7.org/fhir/us/vrdr/StructureDefinition/VRDR-Disposition-Location">
          <valueReference>
            <reference value="urn:uuid:c2063322-7438-43e0-aa4d-482130e6a7bb" />
          </valueReference>
        </extension>
        <status value="final" />
        <code>
          <coding>
            <system value="http://loinc.org" />
            <code value="80905-3" />
            <display value="Body disposition method" />
          </coding>
        </code>
        <subject>
          <reference value="urn:uuid:65ee7d6c-6b33-4862-8f9a-0c82acf53841" />
        </subject>
        <performer>
          <reference value="urn:uuid:52e757b8-d084-41f7-af5e-c8dbc0aafe52" />
        </performer>
        <valueCodeableConcept>
          <coding>
            <system value="http://snomed.info/sct" />
            <code value="449971000124106" />
            <display value="Burial" />
          </coding>
        </valueCodeableConcept>
      </Observation>
    </resource>
  </entry>
  <entry>
    <fullUrl value="urn:uuid:242247a3-eb83-423a-b7c9-8798767cdf6c" />
    <resource>
      <Observation>
        <id value="urn:uuid:242247a3-eb83-423a-b7c9-8798767cdf6c" />
        <meta>
          <profile value="http://www.hl7.org/fhir/us/vrdr/StructureDefinition/VRDR-Autopsy-Performed-Indicator" />
        </meta>
        <status value="final" />
        <code>
          <coding>
            <system value="http://loinc.org" />
            <code value="85699-7" />
            <display value="Autopsy was performed" />
          </coding>
        </code>
        <subject>
          <reference value="urn:uuid:65ee7d6c-6b33-4862-8f9a-0c82acf53841" />
        </subject>
        <valueCodeableConcept>
          <coding>
            <system value="http://www.hl7.org/fhir/ValueSet/v2-0532" />
            <code value="Y" />
            <display value="Yes" />
          </coding>
        </valueCodeableConcept>
        <component>
          <code>
            <coding>
              <system value="http://loinc.org" />
              <code value="69436-4" />
              <display value="Autopsy results available" />
            </coding>
          </code>
          <valueCodeableConcept>
            <coding>
              <system value="http://www.hl7.org/fhir/ValueSet/v2-0532" />
              <code value="Y" />
              <display value="Yes" />
            </coding>
          </valueCodeableConcept>
        </component>
      </Observation>
    </resource>
  </entry>
  <entry>
    <fullUrl value="urn:uuid:cee50519-54be-4c82-ab63-47666b2eb1b1" />
    <resource>
      <Observation>
        <id value="urn:uuid:cee50519-54be-4c82-ab63-47666b2eb1b1" />
        <meta>
          <profile value="http://www.hl7.org/fhir/us/vrdr/StructureDefinition/VRDR-Decedent-Age" />
        </meta>
        <status value="final" />
        <code>
          <coding>
            <system value="http://loinc.org" />
            <code value="30525-0" />
            <display value="Age" />
          </coding>
        </code>
        <subject>
          <reference value="urn:uuid:65ee7d6c-6b33-4862-8f9a-0c82acf53841" />
        </subject>
        <valueQuantity>
          <value value="100" />
          <unit value="a" />
        </valueQuantity>
      </Observation>
    </resource>
  </entry>
  <entry>
    <fullUrl value="urn:uuid:ff5ef7f7-27ee-4c32-b223-78b89412637f" />
    <resource>
      <Observation>
        <id value="urn:uuid:ff5ef7f7-27ee-4c32-b223-78b89412637f" />
        <meta>
          <profile value="http://www.hl7.org/fhir/us/vrdr/StructureDefinition/VRDR-Decedent-Pregnancy" />
        </meta>
        <status value="final" />
        <code>
          <coding>
            <system value="http://loinc.org" />
            <code value="69442-2" />
            <display value="Timing of recent pregnancy in relation to death" />
          </coding>
        </code>
        <subject>
          <reference value="urn:uuid:65ee7d6c-6b33-4862-8f9a-0c82acf53841" />
        </subject>
        <valueCodeableConcept>
          <coding>
            <system value="http://www.hl7.org/fhir/stu3/valueset-PregnancyStatusVS" />
            <code value="PHC1260" />
            <display value="Not pregnant within past year" />
          </coding>
        </valueCodeableConcept>
      </Observation>
    </resource>
  </entry>
  <entry>
    <fullUrl value="urn:uuid:1b62f1f6-59de-428d-b405-67acd5a81291" />
    <resource>
      <Observation>
        <id value="urn:uuid:1b62f1f6-59de-428d-b405-67acd5a81291" />
        <meta>
          <profile value="http://www.hl7.org/fhir/us/vrdr/StructureDefinition/VRDR-Decedent-Transportation-Role" />
        </meta>
        <status value="final" />
        <code>
          <coding>
            <system value="http://loinc.org" />
            <code value="69451-3" />
            <display value="Transportation role of decedent" />
          </coding>
        </code>
        <subject>
          <reference value="urn:uuid:65ee7d6c-6b33-4862-8f9a-0c82acf53841" />
        </subject>
        <valueCodeableConcept>
          <coding>
            <system value="http://www.hl7.org/fhir/stu3/valueset-TransportationRelationships" />
            <code value="example-code" />
            <display value="Example Code" />
          </coding>
        </valueCodeableConcept>
      </Observation>
    </resource>
  </entry>
  <entry>
    <fullUrl value="urn:uuid:759b033d-9021-465b-afa7-f26baa9c31c3" />
    <resource>
      <Observation>
        <id value="urn:uuid:759b033d-9021-465b-afa7-f26baa9c31c3" />
        <meta>
          <profile value="http://www.hl7.org/fhir/us/vrdr/StructureDefinition/VRDR-Examiner-Contacted" />
        </meta>
        <status value="final" />
        <code>
          <coding>
            <system value="http://loinc.org" />
            <code value="74497-9" />
            <display value="Medical examiner or coroner was contacted" />
          </coding>
        </code>
        <subject>
          <reference value="urn:uuid:65ee7d6c-6b33-4862-8f9a-0c82acf53841" />
        </subject>
        <valueBoolean value="false" />
      </Observation>
    </resource>
  </entry>
  <entry>
    <fullUrl value="urn:uuid:9f3e3124-3e87-4a27-9b10-fba331549ca4" />
    <resource>
      <Observation>
        <id value="urn:uuid:9f3e3124-3e87-4a27-9b10-fba331549ca4" />
        <meta>
          <profile value="http://www.hl7.org/fhir/us/vrdr/StructureDefinition/VRDR-Tobacco-Use-Contributed-To-Death" />
        </meta>
        <status value="final" />
        <code>
          <coding>
            <system value="http://loinc.org" />
            <code value="69443-0" />
            <display value="Did tobacco use contribute to death" />
          </coding>
        </code>
        <subject>
          <reference value="urn:uuid:65ee7d6c-6b33-4862-8f9a-0c82acf53841" />
        </subject>
        <valueCodeableConcept>
          <coding>
            <system value="http://www.hl7.org/fhir/ValueSet/v2-0532" />
            <code value="Y" />
            <display value="Yes" />
          </coding>
        </valueCodeableConcept>
      </Observation>
    </resource>
  </entry>
  <entry>
    <fullUrl value="urn:uuid:7fe8e8e7-28b5-4ec1-9062-0b3a4594b5ac" />
    <resource>
      <Location>
        <id value="urn:uuid:7fe8e8e7-28b5-4ec1-9062-0b3a4594b5ac" />
        <meta>
          <profile value="http://www.hl7.org/fhir/us/vrdr/StructureDefinition/VRDR-Injury-Location" />
        </meta>
        <name value="Example Injury Location Name" />
        <description value="Example Injury Location Description" />
        <address>
          <line value="781 Example Street" />
          <line value="Line 2" />
          <city value="Bedford" />
          <district value="Middlesex" />
          <state value="Massachusetts" />
          <postalCode value="01730" />
          <country value="United States" />
        </address>
      </Location>
    </resource>
  </entry>
  <entry>
    <fullUrl value="urn:uuid:5dfbfbc2-c6da-4c31-ac04-000e49522a37" />
    <resource>
      <Observation>
        <id value="urn:uuid:5dfbfbc2-c6da-4c31-ac04-000e49522a37" />
        <meta>
          <profile value="http://www.hl7.org/fhir/us/vrdr/StructureDefinition/VRDR-Injury-Incident" />
        </meta>
        <status value="final" />
        <code>
          <coding>
            <system value="http://loinc.org" />
            <code value="11374-6" />
            <display value="Injury incident description" />
          </coding>
        </code>
        <subject>
          <reference value="urn:uuid:65ee7d6c-6b33-4862-8f9a-0c82acf53841" />
        </subject>
        <effectiveDateTime value="2018-02-19T16:48:06.4988220-05:00" />
      </Observation>
    </resource>
  </entry>
  <entry>
    <fullUrl value="urn:uuid:f753f4e1-68ca-474b-baf7-9697f30cb558" />
    <resource>
      <Location>
        <id value="urn:uuid:f753f4e1-68ca-474b-baf7-9697f30cb558" />
        <meta>
          <profile value="http://www.hl7.org/fhir/us/vrdr/StructureDefinition/VRDR-Death-Location" />
        </meta>
        <name value="Example Death Location Name" />
        <description value="Example Death Location Description" />
        <address>
          <line value="671 Example Street" />
          <line value="Line 2" />
          <city value="Bedford" />
          <district value="Middlesex" />
          <state value="Massachusetts" />
          <postalCode value="01730" />
          <country value="United States" />
        </address>
      </Location>
    </resource>
  </entry>
  <entry>
    <fullUrl value="urn:uuid:5f5efca1-d8ac-4846-bc3c-bb918ca05dc6" />
    <resource>
      <Observation>
        <id value="urn:uuid:5f5efca1-d8ac-4846-bc3c-bb918ca05dc6" />
        <meta>
          <profile value="http://www.hl7.org/fhir/us/vrdr/StructureDefinition/VRDR-Death-Date" />
        </meta>
        <status value="final" />
        <code>
          <coding>
            <system value="http://loinc.org" />
            <code value="81956-5" />
            <display value="Date and time of death" />
          </coding>
        </code>
        <subject>
          <reference value="urn:uuid:65ee7d6c-6b33-4862-8f9a-0c82acf53841" />
        </subject>
        <effectiveDateTime value="2018-02-19T16:48:06.4988220-05:00" />
        <performer>
          <reference value="urn:uuid:19197ab0-863b-4107-87aa-90f2d6dc3807" />
        </performer>
        <component>
          <code>
            <coding>
              <system value="http://loinc.org" />
              <code value="80616-6" />
              <display value="Date and time pronounced dead" />
            </coding>
          </code>
          <valueDateTime value="2018-02-20T16:48:06.4988220-05:00" />
        </component>
      </Observation>
    </resource>
  </entry>
</Bundle>


