<Bundle xmlns="http://hl7.org/fhir">
  <id value="urn:uuid:1f85404c-19bf-413e-b975-d87f1a48ab08" />
  <meta>
    <profile value="http://www.hl7.org/fhir/us/vrdr/StructureDefinition/VRDR-Death-Certificate-Document" />
  </meta>
  <identifier>
    <value value="42" />
  </identifier>
  <type value="document" />
  <entry>
    <fullUrl value="urn:uuid:792f37f0-9a17-4016-9a51-ca6899d5bc1d" />
    <resource>
      <Composition>
        <id value="urn:uuid:792f37f0-9a17-4016-9a51-ca6899d5bc1d" />
        <meta>
          <profile value="http://www.hl7.org/fhir/us/vrdr/StructureDefinition/VRDR-Death-Certificate" />
        </meta>
        <identifier>
          <value value="1" />
        </identifier>
        <status value="final" />
        <type>
          <coding>
            <system value="http://loinc.org" />
            <code value="64297-5" />
            <display value="Death certificate" />
          </coding>
        </type>
        <subject>
          <reference value="urn:uuid:e873e284-eff0-4435-b125-bef990b7d871" />
        </subject>
        <date value="2019-01-20T16:47:04.4988220-05:00" />
        <attester>
          <mode value="legal" />
          <time value="2019-01-29T16:48:06.4988220-05:00" />
          <party>
            <reference value="urn:uuid:ffa0d2cb-cd42-4542-b814-35b1a09a9c4d" />
          </party>
        </attester>
        <event>
          <code>
            <coding>
              <system value="http://snomed.info/sct" />
              <code value="103693007" />
              <display value="Diagnostic procedure" />
            </coding>
          </code>
          <detail>
            <reference value="urn:uuid:c899a534-edca-4a93-b949-f64e13a5ab2c" />
          </detail>
        </event>
        <section>
          <entry>
            <reference value="urn:uuid:e873e284-eff0-4435-b125-bef990b7d871" />
          </entry>
          <entry>
            <reference value="urn:uuid:ffa0d2cb-cd42-4542-b814-35b1a09a9c4d" />
          </entry>
          <entry>
            <reference value="urn:uuid:c474c232-4e0c-409a-9a23-eb682ee39aa8" />
          </entry>
          <entry>
            <reference value="urn:uuid:c899a534-edca-4a93-b949-f64e13a5ab2c" />
          </entry>
          <entry>
            <reference value="urn:uuid:84258d91-ff19-4d69-afd9-1b10575dad51" />
          </entry>
          <entry>
            <reference value="urn:uuid:8a03a15d-b15a-45e2-b1de-3d10c0920c4b" />
          </entry>
          <entry>
            <reference value="urn:uuid:6bfa0cbc-4025-44ca-917f-3524a32cab52" />
          </entry>
          <entry>
            <reference value="urn:uuid:7ed29ca0-2759-4b66-acb9-a8376a446a71" />
          </entry>
          <entry>
            <reference value="urn:uuid:faea422a-1360-4e9a-8327-252ebb9bc94f" />
          </entry>
          <entry>
            <reference value="urn:uuid:32e37318-4287-4b5a-97ac-0a9782c57da5" />
          </entry>
          <entry>
            <reference value="urn:uuid:3dc2ca6e-bc67-4459-af9d-db42311c661e" />
          </entry>
          <entry>
            <reference value="urn:uuid:15b754ee-2ce9-46b7-85a9-14550118ca0e" />
          </entry>
          <entry>
            <reference value="urn:uuid:084c7b44-196b-4d17-8ebe-3e1c68ca844a" />
          </entry>
          <entry>
            <reference value="urn:uuid:b34b6db6-0323-4668-84e8-10a0b40ade77" />
          </entry>
          <entry>
            <reference value="urn:uuid:1eae9c9b-51e3-4e67-94de-c31cca8b29f6" />
          </entry>
          <entry>
            <reference value="urn:uuid:af59654f-faea-41d8-bdca-3b98cb798bdc" />
          </entry>
          <entry>
            <reference value="urn:uuid:492e1351-4e80-46ca-85a7-d8bdabf9b38c" />
          </entry>
          <entry>
            <reference value="urn:uuid:afaeeb96-7989-41a3-bbc6-c600da5c22ab" />
          </entry>
          <entry>
            <reference value="urn:uuid:a8206784-59e6-4844-ac86-5736a610bc84" />
          </entry>
          <entry>
            <reference value="urn:uuid:94efacc7-6101-4df1-8e8f-cdee7743b4a8" />
          </entry>
          <entry>
            <reference value="urn:uuid:8eea7ce9-906d-4765-838b-a159ee49a505" />
          </entry>
          <entry>
            <reference value="urn:uuid:267cd537-4d4b-41e1-8a69-3aa9fb6b5432" />
          </entry>
          <entry>
            <reference value="urn:uuid:8f6122e9-f151-4f7a-9300-c1ba9e286116" />
          </entry>
          <entry>
            <reference value="urn:uuid:0f2142fc-56f4-493b-be72-7a05853533a8" />
          </entry>
          <entry>
            <reference value="urn:uuid:dc2407c9-4520-48b9-ac2e-7679338971a5" />
          </entry>
          <entry>
            <reference value="urn:uuid:e6a669b3-0b40-47ea-a572-15d12e106af7" />
          </entry>
          <entry>
            <reference value="urn:uuid:e07d5547-d6a3-4141-af05-50030fe270bd" />
          </entry>
          <entry>
            <reference value="urn:uuid:2811b16b-cd3f-4fd2-8736-ab1709adaf9b" />
          </entry>
          <entry>
            <reference value="urn:uuid:6a6102e7-e472-41e2-8c02-2b91690687c7" />
          </entry>
          <entry>
            <reference value="urn:uuid:6b116872-7869-4612-9eee-2e7680b56ec8" />
          </entry>
          <entry>
            <reference value="urn:uuid:21b8631b-c791-4ab6-8f02-ce5a44fe2e8d" />
          </entry>
          <entry>
            <reference value="urn:uuid:f1c734a2-33f3-494a-b8d3-3e76668c6fe1" />
          </entry>
        </section>
      </Composition>
    </resource>
  </entry>
  <entry>
    <fullUrl value="urn:uuid:e873e284-eff0-4435-b125-bef990b7d871" />
    <resource>
      <Patient>
        <id value="urn:uuid:e873e284-eff0-4435-b125-bef990b7d871" />
        <meta>
          <profile value="http://www.hl7.org/fhir/us/vrdr/StructureDefinition/VRDR-Decedent" />
        </meta>
        <extension url="http://hl7.org/fhir/us/core/StructureDefinition/us-core-birthsex">
          <valueCodeableConcept>
            <coding>
              <system value="http://hl7.org/fhir/us/core/ValueSet/us-core-birthsex" />
              <code value="M" />
              <display value="Male" />
            </coding>
          </valueCodeableConcept>
        </extension>
        <extension url="http://hl7.org/fhir/us/core/StructureDefinition/us-core-ethnicity">
          <extension url="text">
            <valueString value="Hispanic or Latino" />
          </extension>
          <extension url="ombCategory">
            <valueCoding>
              <system value="urn:oid:2.16.840.1.113883.6.238" />
              <code value="2135-2" />
              <display value="Hispanic or Latino" />
            </valueCoding>
          </extension>
          <extension url="text">
            <valueString value="Puerto Rican" />
          </extension>
          <extension url="detailed">
            <valueCoding>
              <system value="urn:oid:2.16.840.1.113883.6.238" />
              <code value="2180-8" />
              <display value="Puerto Rican" />
            </valueCoding>
          </extension>
        </extension>
        <extension url="http://hl7.org/fhir/us/core/StructureDefinition/us-core-race">
          <extension url="text">
            <valueString value="White" />
          </extension>
          <extension url="ombCategory">
            <valueCoding>
              <system value="urn:oid:2.16.840.1.113883.6.238" />
              <code value="2106-3" />
              <display value="White" />
            </valueCoding>
          </extension>
          <extension url="text">
            <valueString value="Native Hawaiian or Other Pacific Islander" />
          </extension>
          <extension url="ombCategory">
            <valueCoding>
              <system value="urn:oid:2.16.840.1.113883.6.238" />
              <code value="2076-8" />
              <display value="Native Hawaiian or Other Pacific Islander" />
            </valueCoding>
          </extension>
        </extension>
        <extension url="http://www.hl7.org/fhir/StructureDefinition/birthPlace">
          <valueAddress>
            <line value="1011 Example Street" />
            <line value="Line 2" />
            <city value="Bedford" />
            <district value="Middlesex" />
            <state value="Massachusetts" />
            <postalCode value="01730" />
            <country value="United States" />
          </valueAddress>
        </extension>
        <identifier>
          <type>
            <coding>
              <code value="BR" />
              <display value="Social Beneficiary Identifier" />
            </coding>
          </type>
          <system value="http://hl7.org/fhir/sid/us-ssn" />
          <value value="123456789" />
        </identifier>
        <name>
          <use value="official" />
          <family value="Last" />
          <given value="Example" />
          <given value="Something" />
          <given value="Middle" />
          <suffix value="Jr." />
        </name>
        <gender value="male" />
        <birthDate value="1940-02-19T16:48:06.4988220-05:00" />
        <address>
          <line value="101 Example Street" />
          <line value="Line 2" />
          <city value="Bedford" />
          <district value="Middlesex" />
          <state value="Massachusetts" />
          <postalCode value="01730" />
          <country value="United States" />
        </address>
        <maritalStatus>
          <coding>
            <system value="http://hl7.org/fhir/v3/MaritalStatus" />
            <code value="S" />
            <display value="Never Married" />
          </coding>
        </maritalStatus>
      </Patient>
    </resource>
  </entry>
  <entry>
    <fullUrl value="urn:uuid:ffa0d2cb-cd42-4542-b814-35b1a09a9c4d" />
    <resource>
      <Practitioner>
        <id value="urn:uuid:ffa0d2cb-cd42-4542-b814-35b1a09a9c4d" />
        <meta>
          <profile value="http://www.hl7.org/fhir/us/vrdr/StructureDefinition/VRDR-Certifier" />
        </meta>
        <name>
          <use value="official" />
          <family value="Last" />
          <given value="Doctor" />
          <given value="Middle" />
          <suffix value="Jr." />
        </name>
        <address>
          <line value="11 Example Street" />
          <line value="Line 2" />
          <city value="Bedford" />
          <district value="Middlesex" />
          <state value="Massachusetts" />
          <postalCode value="01730" />
          <country value="United States" />
        </address>
        <qualification>
          <code>
            <coding>
              <system value="http://hl7.org/fhir/v2/0360/2.7" />
              <code value="MD" />
              <display value="Doctor of Medicine" />
            </coding>
          </code>
        </qualification>
      </Practitioner>
    </resource>
  </entry>
  <entry>
    <fullUrl value="urn:uuid:c474c232-4e0c-409a-9a23-eb682ee39aa8" />
    <resource>
      <Practitioner>
        <id value="urn:uuid:c474c232-4e0c-409a-9a23-eb682ee39aa8" />
        <meta>
          <profile value="http://www.hl7.org/fhir/us/vrdr/StructureDefinition/VRDR-Mortician" />
        </meta>
        <name>
          <use value="official" />
          <family value="Last" />
          <given value="FD" />
          <given value="Middle" />
          <suffix value="Jr." />
        </name>
        <qualification>
          <identifier>
            <value value="9876543210" />
          </identifier>
        </qualification>
      </Practitioner>
    </resource>
  </entry>
  <entry>
    <fullUrl value="urn:uuid:c899a534-edca-4a93-b949-f64e13a5ab2c" />
    <resource>
      <Procedure>
        <id value="urn:uuid:c899a534-edca-4a93-b949-f64e13a5ab2c" />
        <meta>
          <profile value="http://www.hl7.org/fhir/us/vrdr/StructureDefinition/VRDR-Death-Certification" />
        </meta>
        <status value="completed" />
        <category>
          <coding>
            <system value="http://snomed.info/sct" />
            <code value="103693007" />
            <display value="Diagnostic procedure" />
          </coding>
        </category>
        <code>
          <coding>
            <system value="http://snomed.info/sct" />
            <code value="308646001" />
            <display value="Death certification" />
          </coding>
        </code>
        <performedDateTime value="2019-01-29T16:48:06.4988220-05:00" />
        <performer>
          <role>
            <coding>
              <system value="http://snomed.info/sct" />
              <code value="309343006" />
              <display value="Physician" />
            </coding>
          </role>
          <actor>
            <reference value="urn:uuid:ffa0d2cb-cd42-4542-b814-35b1a09a9c4d" />
          </actor>
        </performer>
      </Procedure>
    </resource>
  </entry>
  <entry>
    <fullUrl value="urn:uuid:84258d91-ff19-4d69-afd9-1b10575dad51" />
    <resource>
      <Organization>
        <id value="urn:uuid:84258d91-ff19-4d69-afd9-1b10575dad51" />
        <meta>
          <profile value="http://www.hl7.org/fhir/us/vrdr/StructureDefinition/VRDR-Interested-Party" />
        </meta>
        <identifier>
          <value value="1010101" />
        </identifier>
        <active value="true" />
        <type>
          <coding>
            <system value="http://terminology.hl7.org/CodeSystem/organization-type" />
            <code value="prov" />
            <display value="Healthcare Provider" />
          </coding>
        </type>
        <name value="Example Hospital" />
        <address>
          <line value="10 Example Street" />
          <line value="Line 2" />
          <city value="Bedford" />
          <district value="Middlesex" />
          <state value="Massachusetts" />
          <postalCode value="01730" />
          <country value="United States" />
        </address>
      </Organization>
    </resource>
  </entry>
  <entry>
    <fullUrl value="urn:uuid:8a03a15d-b15a-45e2-b1de-3d10c0920c4b" />
    <resource>
      <Organization>
        <id value="urn:uuid:8a03a15d-b15a-45e2-b1de-3d10c0920c4b" />
        <meta>
          <profile value="http://www.hl7.org/fhir/us/vrdr/StructureDefinition/VRDR-Funeral-Home" />
        </meta>
        <type>
          <coding>
            <code value="bus" />
            <display value="Non-Healthcare Business or Corporation" />
          </coding>
        </type>
        <name value="Smith Funeral Home" />
        <address>
          <line value="1011010 Example Street" />
          <line value="Line 2" />
          <city value="Bedford" />
          <district value="Middlesex" />
          <state value="Massachusetts" />
          <postalCode value="01730" />
          <country value="United States" />
        </address>
      </Organization>
    </resource>
  </entry>
  <entry>
    <fullUrl value="urn:uuid:6bfa0cbc-4025-44ca-917f-3524a32cab52" />
    <resource>
      <PractitionerRole>
        <id value="urn:uuid:6bfa0cbc-4025-44ca-917f-3524a32cab52" />
        <meta>
          <profile value="http://www.hl7.org/fhir/us/vrdr/StructureDefinition/VRDR-Funeral-Home-Director" />
        </meta>
        <practitioner>
          <reference value="urn:uuid:c474c232-4e0c-409a-9a23-eb682ee39aa8" />
        </practitioner>
        <organization>
          <reference value="urn:uuid:8a03a15d-b15a-45e2-b1de-3d10c0920c4b" />
        </organization>
      </PractitionerRole>
    </resource>
  </entry>
  <entry>
    <fullUrl value="urn:uuid:7ed29ca0-2759-4b66-acb9-a8376a446a71" />
    <resource>
      <List>
        <id value="urn:uuid:7ed29ca0-2759-4b66-acb9-a8376a446a71" />
        <meta>
          <profile value="http://www.hl7.org/fhir/us/vrdr/StructureDefinition/VRDR-Cause-of-Death-Pathway" />
        </meta>
        <status value="current" />
        <mode value="snapshot" />
        <source>
          <reference value="urn:uuid:ffa0d2cb-cd42-4542-b814-35b1a09a9c4d" />
        </source>
        <orderedBy>
          <coding>
            <code value="priority" />
          </coding>
        </orderedBy>
        <entry>
          <item>
            <reference value="urn:uuid:15b754ee-2ce9-46b7-85a9-14550118ca0e" />
          </item>
        </entry>
        <entry>
          <item>
            <reference value="urn:uuid:084c7b44-196b-4d17-8ebe-3e1c68ca844a" />
          </item>
        </entry>
        <entry>
          <item>
            <reference value="urn:uuid:b34b6db6-0323-4668-84e8-10a0b40ade77" />
          </item>
        </entry>
        <entry>
          <item>
            <reference value="urn:uuid:1eae9c9b-51e3-4e67-94de-c31cca8b29f6" />
          </item>
        </entry>
      </List>
    </resource>
  </entry>
  <entry>
    <fullUrl value="urn:uuid:faea422a-1360-4e9a-8327-252ebb9bc94f" />
    <resource>
      <Location>
        <id value="urn:uuid:faea422a-1360-4e9a-8327-252ebb9bc94f" />
        <meta>
          <profile value="http://www.hl7.org/fhir/us/vrdr/StructureDefinition/VRDR-Disposition-Location" />
        </meta>
        <name value="Bedford Cemetery" />
        <address>
          <line value="603 Example Street" />
          <line value="Line 2" />
          <city value="Bedford" />
          <district value="Middlesex" />
          <state value="Massachusetts" />
          <postalCode value="01730" />
          <country value="United States" />
        </address>
      </Location>
    </resource>
  </entry>
  <entry>
    <fullUrl value="urn:uuid:32e37318-4287-4b5a-97ac-0a9782c57da5" />
    <resource>
      <Observation>
        <id value="urn:uuid:32e37318-4287-4b5a-97ac-0a9782c57da5" />
        <meta>
          <profile value="http://www.hl7.org/fhir/us/vrdr/StructureDefinition/VRDR-Manner-of-Death" />
        </meta>
        <status value="final" />
        <code>
          <coding>
            <system value="http://loinc.org" />
            <code value="69449-7" />
            <display value="Manner of death" />
          </coding>
        </code>
        <subject>
          <reference value="urn:uuid:e873e284-eff0-4435-b125-bef990b7d871" />
        </subject>
        <performer>
          <reference value="urn:uuid:ffa0d2cb-cd42-4542-b814-35b1a09a9c4d" />
        </performer>
        <valueCodeableConcept>
          <coding>
            <code value="7878000" />
            <display value="Accident" />
          </coding>
        </valueCodeableConcept>
      </Observation>
    </resource>
  </entry>
  <entry>
    <fullUrl value="urn:uuid:3dc2ca6e-bc67-4459-af9d-db42311c661e" />
    <resource>
      <Condition>
        <id value="urn:uuid:3dc2ca6e-bc67-4459-af9d-db42311c661e" />
        <meta>
          <profile value="http://www.hl7.org/fhir/us/vrdr/StructureDefinition/VRDR-Condition-Contributing-To-Death" />
        </meta>
        <code>
          <text value="Example Contributing Conditions" />
        </code>
        <subject>
          <reference value="urn:uuid:e873e284-eff0-4435-b125-bef990b7d871" />
        </subject>
      </Condition>
    </resource>
  </entry>
  <entry>
    <fullUrl value="urn:uuid:15b754ee-2ce9-46b7-85a9-14550118ca0e" />
    <resource>
      <Condition>
        <id value="urn:uuid:15b754ee-2ce9-46b7-85a9-14550118ca0e" />
        <meta>
          <profile value="http://www.hl7.org/fhir/us/vrdr/StructureDefinition/VRDR-Cause-Of-Death-Condition" />
        </meta>
        <code>
          <coding>
            <system value="http://hl7.org/fhir/sid/icd-10" />
            <code value="I21.0" />
            <display value="Acute transmural myocardial infarction of anterior wall" />
          </coding>
          <text value="Rupture of myocardium" />
        </code>
        <subject>
          <reference value="urn:uuid:e873e284-eff0-4435-b125-bef990b7d871" />
        </subject>
        <onsetString value="minutes" />
        <asserter>
          <reference value="urn:uuid:ffa0d2cb-cd42-4542-b814-35b1a09a9c4d" />
        </asserter>
      </Condition>
    </resource>
  </entry>
  <entry>
    <fullUrl value="urn:uuid:084c7b44-196b-4d17-8ebe-3e1c68ca844a" />
    <resource>
      <Condition>
        <id value="urn:uuid:084c7b44-196b-4d17-8ebe-3e1c68ca844a" />
        <meta>
          <profile value="http://www.hl7.org/fhir/us/vrdr/StructureDefinition/VRDR-Cause-Of-Death-Condition" />
        </meta>
        <code>
          <coding>
            <system value="http://hl7.org/fhir/sid/icd-10" />
            <code value="I21.9" />
            <display value="Acute myocardial infarction, unspecified" />
          </coding>
          <text value="Acute myocardial infarction" />
        </code>
        <subject>
          <reference value="urn:uuid:e873e284-eff0-4435-b125-bef990b7d871" />
        </subject>
        <onsetString value="6 days" />
        <asserter>
          <reference value="urn:uuid:ffa0d2cb-cd42-4542-b814-35b1a09a9c4d" />
        </asserter>
      </Condition>
    </resource>
  </entry>
  <entry>
    <fullUrl value="urn:uuid:b34b6db6-0323-4668-84e8-10a0b40ade77" />
    <resource>
      <Condition>
        <id value="urn:uuid:b34b6db6-0323-4668-84e8-10a0b40ade77" />
        <meta>
          <profile value="http://www.hl7.org/fhir/us/vrdr/StructureDefinition/VRDR-Cause-Of-Death-Condition" />
        </meta>
        <code>
          <text value="Coronary artery thrombosis" />
        </code>
        <subject>
          <reference value="urn:uuid:e873e284-eff0-4435-b125-bef990b7d871" />
        </subject>
        <onsetString value="5 years" />
        <asserter>
          <reference value="urn:uuid:ffa0d2cb-cd42-4542-b814-35b1a09a9c4d" />
        </asserter>
      </Condition>
    </resource>
  </entry>
  <entry>
    <fullUrl value="urn:uuid:1eae9c9b-51e3-4e67-94de-c31cca8b29f6" />
    <resource>
      <Condition>
        <id value="urn:uuid:1eae9c9b-51e3-4e67-94de-c31cca8b29f6" />
        <meta>
          <profile value="http://www.hl7.org/fhir/us/vrdr/StructureDefinition/VRDR-Cause-Of-Death-Condition" />
        </meta>
        <code>
          <text value="Atherosclerotic coronary artery disease" />
        </code>
        <subject>
          <reference value="urn:uuid:e873e284-eff0-4435-b125-bef990b7d871" />
        </subject>
        <onsetString value="7 years" />
        <asserter>
          <reference value="urn:uuid:ffa0d2cb-cd42-4542-b814-35b1a09a9c4d" />
        </asserter>
      </Condition>
    </resource>
  </entry>
  <entry>
    <fullUrl value="urn:uuid:af59654f-faea-41d8-bdca-3b98cb798bdc" />
    <resource>
      <RelatedPerson>
        <id value="urn:uuid:af59654f-faea-41d8-bdca-3b98cb798bdc" />
        <meta>
          <profile value="http://www.hl7.org/fhir/us/vrdr/StructureDefinition/VRDR-Decedent-Father" />
        </meta>
        <patient>
          <reference value="urn:uuid:e873e284-eff0-4435-b125-bef990b7d871" />
        </patient>
        <relationship>
          <coding>
            <code value="FTH" />
          </coding>
        </relationship>
        <name>
          <family value="Last" />
          <given value="Father" />
          <given value="Middle" />
          <suffix value="Sr." />
        </name>
      </RelatedPerson>
    </resource>
  </entry>
  <entry>
    <fullUrl value="urn:uuid:492e1351-4e80-46ca-85a7-d8bdabf9b38c" />
    <resource>
      <RelatedPerson>
        <id value="urn:uuid:492e1351-4e80-46ca-85a7-d8bdabf9b38c" />
        <meta>
          <profile value="http://www.hl7.org/fhir/us/vrdr/StructureDefinition/VRDR-Decedent-Mother" />
        </meta>
        <patient>
          <reference value="urn:uuid:e873e284-eff0-4435-b125-bef990b7d871" />
        </patient>
        <relationship>
          <coding>
            <code value="MTH" />
          </coding>
        </relationship>
        <name>
          <family value="Maiden" />
          <given value="Mother" />
          <given value="Middle" />
          <suffix value="Dr." />
        </name>
      </RelatedPerson>
    </resource>
  </entry>
  <entry>
    <fullUrl value="urn:uuid:afaeeb96-7989-41a3-bbc6-c600da5c22ab" />
    <resource>
      <RelatedPerson>
        <id value="urn:uuid:afaeeb96-7989-41a3-bbc6-c600da5c22ab" />
        <meta>
          <profile value="http://www.hl7.org/fhir/us/vrdr/StructureDefinition/VRDR-Decedent-Spouse" />
        </meta>
        <patient>
          <reference value="urn:uuid:e873e284-eff0-4435-b125-bef990b7d871" />
        </patient>
        <relationship>
          <coding>
            <code value="SPS" />
          </coding>
        </relationship>
        <name>
          <family value="Last" />
          <given value="Spouse" />
          <given value="Middle" />
          <suffix value="Ph.D." />
        </name>
      </RelatedPerson>
    </resource>
  </entry>
  <entry>
    <fullUrl value="urn:uuid:a8206784-59e6-4844-ac86-5736a610bc84" />
    <resource>
      <Observation>
        <id value="urn:uuid:a8206784-59e6-4844-ac86-5736a610bc84" />
        <meta>
          <profile value="http://www.hl7.org/fhir/us/vrdr/StructureDefinition/VRDR-Decedent-Education-Level" />
        </meta>
        <status value="final" />
        <code>
          <coding>
            <system value="http://loinc.org" />
            <code value="80913-7" />
            <display value="Highest level of education" />
          </coding>
        </code>
        <subject>
          <reference value="urn:uuid:e873e284-eff0-4435-b125-bef990b7d871" />
        </subject>
        <valueCodeableConcept>
          <coding>
            <system value="http://hl7.org/fhir/v3/EducationLevel" />
            <code value="BD" />
            <display value="College or baccalaureate degree complete" />
          </coding>
        </valueCodeableConcept>
      </Observation>
    </resource>
  </entry>
  <entry>
    <fullUrl value="urn:uuid:94efacc7-6101-4df1-8e8f-cdee7743b4a8" />
    <resource>
      <Observation>
        <id value="urn:uuid:94efacc7-6101-4df1-8e8f-cdee7743b4a8" />
        <meta>
          <profile value="http://www.hl7.org/fhir/us/vrdr/StructureDefinition/VRDR-Birth-Record-Identifier" />
        </meta>
        <status value="final" />
        <code>
          <coding>
            <code value="BR" />
          </coding>
        </code>
        <subject>
          <reference value="urn:uuid:e873e284-eff0-4435-b125-bef990b7d871" />
        </subject>
        <valueString value="4242123" />
      </Observation>
    </resource>
  </entry>
  <entry>
    <fullUrl value="urn:uuid:8eea7ce9-906d-4765-838b-a159ee49a505" />
    <resource>
      <Observation>
        <id value="urn:uuid:8eea7ce9-906d-4765-838b-a159ee49a505" />
        <meta>
          <profile value="http://www.hl7.org/fhir/us/vrdr/StructureDefinition/VRDR-Decedent-Employment-History" />
        </meta>
        <status value="final" />
        <code>
          <coding>
            <system value="http://loinc.org" />
            <code value="74165-2" />
            <display value="History of employment status" />
          </coding>
        </code>
        <subject>
          <reference value="urn:uuid:e873e284-eff0-4435-b125-bef990b7d871" />
        </subject>
        <component>
          <code>
            <coding>
              <system value="http://loinc.org" />
              <code value="21847-9" />
              <display value="Usual occupation" />
            </coding>
          </code>
          <valueCodeableConcept>
            <coding>
              <system value="http://www.hl7.org/fhir/ValueSet/Usual-occupation" />
              <code value="7280" />
              <display value="Accounting, tax preparation, bookkeeping, and payroll services" />
            </coding>
          </valueCodeableConcept>
        </component>
        <component>
          <code>
            <coding>
              <system value="http://loinc.org" />
              <code value="21844-6" />
              <display value="Usual industry" />
            </coding>
          </code>
          <valueCodeableConcept>
            <coding>
              <system value="http://www.hl7.org/fhir/ValueSet/industry-cdc-census-2010" />
              <code value="1320" />
              <display value="Aerospace engineers" />
            </coding>
          </valueCodeableConcept>
        </component>
        <component>
          <code>
            <coding>
              <system value="http://loinc.org" />
              <code value="55280-2" />
              <display value="Military service" />
            </coding>
          </code>
          <valueCodeableConcept>
            <coding>
              <system value="http://www.hl7.org/fhir/ValueSet/v2-0532" />
              <code value="Y" />
              <display value="Yes" />
            </coding>
          </valueCodeableConcept>
        </component>
      </Observation>
    </resource>
  </entry>
  <entry>
    <fullUrl value="urn:uuid:267cd537-4d4b-41e1-8a69-3aa9fb6b5432" />
    <resource>
      <Observation>
        <id value="urn:uuid:267cd537-4d4b-41e1-8a69-3aa9fb6b5432" />
        <meta>
          <profile value="http://www.hl7.org/fhir/us/vrdr/StructureDefinition/VRDR-Decedent-Disposition-Method" />
        </meta>
        <extension url="http://www.hl7.org/fhir/us/vrdr/StructureDefinition/VRDR-Disposition-Location">
          <valueReference>
            <reference value="urn:uuid:faea422a-1360-4e9a-8327-252ebb9bc94f" />
          </valueReference>
        </extension>
        <status value="final" />
        <code>
          <coding>
            <system value="http://loinc.org" />
            <code value="80905-3" />
            <display value="Body disposition method" />
          </coding>
        </code>
        <subject>
          <reference value="urn:uuid:e873e284-eff0-4435-b125-bef990b7d871" />
        </subject>
        <performer>
          <reference value="urn:uuid:c474c232-4e0c-409a-9a23-eb682ee39aa8" />
        </performer>
        <valueCodeableConcept>
          <coding>
            <system value="http://snomed.info/sct" />
            <code value="449971000124106" />
            <display value="Burial" />
          </coding>
        </valueCodeableConcept>
      </Observation>
    </resource>
  </entry>
  <entry>
    <fullUrl value="urn:uuid:8f6122e9-f151-4f7a-9300-c1ba9e286116" />
    <resource>
      <Observation>
        <id value="urn:uuid:8f6122e9-f151-4f7a-9300-c1ba9e286116" />
        <meta>
          <profile value="http://www.hl7.org/fhir/us/vrdr/StructureDefinition/VRDR-Autopsy-Performed-Indicator" />
        </meta>
        <status value="final" />
        <code>
          <coding>
            <system value="http://loinc.org" />
            <code value="85699-7" />
            <display value="Autopsy was performed" />
          </coding>
        </code>
        <subject>
          <reference value="urn:uuid:e873e284-eff0-4435-b125-bef990b7d871" />
        </subject>
        <valueCodeableConcept>
          <coding>
            <system value="http://www.hl7.org/fhir/ValueSet/v2-0532" />
            <code value="Y" />
            <display value="Yes" />
          </coding>
        </valueCodeableConcept>
        <component>
          <code>
            <coding>
              <system value="http://loinc.org" />
              <code value="69436-4" />
              <display value="Autopsy results available" />
            </coding>
          </code>
          <valueCodeableConcept>
            <coding>
              <system value="http://www.hl7.org/fhir/ValueSet/v2-0532" />
              <code value="Y" />
              <display value="Yes" />
            </coding>
          </valueCodeableConcept>
        </component>
      </Observation>
    </resource>
  </entry>
  <entry>
    <fullUrl value="urn:uuid:0f2142fc-56f4-493b-be72-7a05853533a8" />
    <resource>
      <Observation>
        <id value="urn:uuid:0f2142fc-56f4-493b-be72-7a05853533a8" />
        <meta>
          <profile value="http://www.hl7.org/fhir/us/vrdr/StructureDefinition/VRDR-Decedent-Age" />
        </meta>
        <status value="final" />
        <code>
          <coding>
            <system value="http://loinc.org" />
            <code value="30525-0" />
            <display value="Age" />
          </coding>
        </code>
        <subject>
          <reference value="urn:uuid:e873e284-eff0-4435-b125-bef990b7d871" />
        </subject>
        <valueQuantity>
          <value value="100" />
          <unit value="a" />
        </valueQuantity>
      </Observation>
    </resource>
  </entry>
  <entry>
    <fullUrl value="urn:uuid:dc2407c9-4520-48b9-ac2e-7679338971a5" />
    <resource>
      <Observation>
        <id value="urn:uuid:dc2407c9-4520-48b9-ac2e-7679338971a5" />
        <meta>
          <profile value="http://www.hl7.org/fhir/us/vrdr/StructureDefinition/VRDR-Decedent-Pregnancy" />
        </meta>
        <status value="final" />
        <code>
          <coding>
            <system value="http://loinc.org" />
            <code value="69442-2" />
            <display value="Timing of recent pregnancy in relation to death" />
          </coding>
        </code>
        <subject>
          <reference value="urn:uuid:e873e284-eff0-4435-b125-bef990b7d871" />
        </subject>
        <valueCodeableConcept>
          <coding>
            <system value="http://www.hl7.org/fhir/stu3/valueset-PregnancyStatusVS" />
            <code value="PHC1260" />
            <display value="Not pregnant within past year" />
          </coding>
        </valueCodeableConcept>
      </Observation>
    </resource>
  </entry>
  <entry>
    <fullUrl value="urn:uuid:e6a669b3-0b40-47ea-a572-15d12e106af7" />
    <resource>
      <Observation>
        <id value="urn:uuid:e6a669b3-0b40-47ea-a572-15d12e106af7" />
        <meta>
          <profile value="http://www.hl7.org/fhir/us/vrdr/StructureDefinition/VRDR-Decedent-Transportation-Role" />
        </meta>
        <status value="final" />
        <code>
          <coding>
            <system value="http://loinc.org" />
            <code value="69451-3" />
            <display value="Transportation role of decedent" />
          </coding>
        </code>
        <subject>
          <reference value="urn:uuid:e873e284-eff0-4435-b125-bef990b7d871" />
        </subject>
        <valueCodeableConcept>
          <coding>
            <system value="http://www.hl7.org/fhir/stu3/valueset-TransportationRelationships" />
            <code value="example-code" />
            <display value="Example Code" />
          </coding>
        </valueCodeableConcept>
      </Observation>
    </resource>
  </entry>
  <entry>
    <fullUrl value="urn:uuid:e07d5547-d6a3-4141-af05-50030fe270bd" />
    <resource>
      <Observation>
        <id value="urn:uuid:e07d5547-d6a3-4141-af05-50030fe270bd" />
        <meta>
          <profile value="http://www.hl7.org/fhir/us/vrdr/StructureDefinition/VRDR-Examiner-Contacted" />
        </meta>
        <status value="final" />
        <code>
          <coding>
            <system value="http://loinc.org" />
            <code value="74497-9" />
            <display value="Medical examiner or coroner was contacted" />
          </coding>
        </code>
        <subject>
          <reference value="urn:uuid:e873e284-eff0-4435-b125-bef990b7d871" />
        </subject>
        <valueBoolean value="false" />
      </Observation>
    </resource>
  </entry>
  <entry>
    <fullUrl value="urn:uuid:2811b16b-cd3f-4fd2-8736-ab1709adaf9b" />
    <resource>
      <Observation>
        <id value="urn:uuid:2811b16b-cd3f-4fd2-8736-ab1709adaf9b" />
        <meta>
          <profile value="http://www.hl7.org/fhir/us/vrdr/StructureDefinition/VRDR-Tobacco-Use-Contributed-To-Death" />
        </meta>
        <status value="final" />
        <code>
          <coding>
            <system value="http://loinc.org" />
            <code value="69443-0" />
            <display value="Did tobacco use contribute to death" />
          </coding>
        </code>
        <subject>
          <reference value="urn:uuid:e873e284-eff0-4435-b125-bef990b7d871" />
        </subject>
        <valueCodeableConcept>
          <coding>
            <system value="http://www.hl7.org/fhir/ValueSet/v2-0532" />
            <code value="Y" />
            <display value="Yes" />
          </coding>
        </valueCodeableConcept>
      </Observation>
    </resource>
  </entry>
  <entry>
    <fullUrl value="urn:uuid:6a6102e7-e472-41e2-8c02-2b91690687c7" />
    <resource>
      <Location>
        <id value="urn:uuid:6a6102e7-e472-41e2-8c02-2b91690687c7" />
        <meta>
          <profile value="http://www.hl7.org/fhir/us/vrdr/StructureDefinition/VRDR-Injury-Location" />
        </meta>
        <name value="Example Injury Location Name" />
        <description value="Example Injury Location Description" />
        <address>
          <line value="781 Example Street" />
          <line value="Line 2" />
          <city value="Bedford" />
          <district value="Middlesex" />
          <state value="Massachusetts" />
          <postalCode value="01730" />
          <country value="United States" />
        </address>
      </Location>
    </resource>
  </entry>
  <entry>
    <fullUrl value="urn:uuid:6b116872-7869-4612-9eee-2e7680b56ec8" />
    <resource>
      <Observation>
        <id value="urn:uuid:6b116872-7869-4612-9eee-2e7680b56ec8" />
        <meta>
          <profile value="http://www.hl7.org/fhir/us/vrdr/StructureDefinition/VRDR-Injury-Incident" />
        </meta>
        <status value="final" />
        <code>
          <coding>
            <system value="http://loinc.org" />
            <code value="11374-6" />
            <display value="Injury incident description" />
          </coding>
        </code>
        <subject>
          <reference value="urn:uuid:e873e284-eff0-4435-b125-bef990b7d871" />
        </subject>
        <effectiveDateTime value="2018-02-19T16:48:06.4988220-05:00" />
      </Observation>
    </resource>
  </entry>
  <entry>
    <fullUrl value="urn:uuid:21b8631b-c791-4ab6-8f02-ce5a44fe2e8d" />
    <resource>
      <Location>
        <id value="urn:uuid:21b8631b-c791-4ab6-8f02-ce5a44fe2e8d" />
        <meta>
          <profile value="http://www.hl7.org/fhir/us/vrdr/StructureDefinition/VRDR-Death-Location" />
        </meta>
        <name value="Example Death Location Name" />
        <description value="Example Death Location Description" />
        <address>
          <line value="671 Example Street" />
          <line value="Line 2" />
          <city value="Bedford" />
          <district value="Middlesex" />
          <state value="Massachusetts" />
          <postalCode value="01730" />
          <country value="United States" />
        </address>
      </Location>
    </resource>
  </entry>
  <entry>
    <fullUrl value="urn:uuid:f1c734a2-33f3-494a-b8d3-3e76668c6fe1" />
    <resource>
      <Observation>
        <id value="urn:uuid:f1c734a2-33f3-494a-b8d3-3e76668c6fe1" />
        <meta>
          <profile value="http://www.hl7.org/fhir/us/vrdr/StructureDefinition/VRDR-Death-Date" />
        </meta>
        <status value="final" />
        <code>
          <coding>
            <system value="http://loinc.org" />
            <code value="81956-5" />
            <display value="Date and time of death" />
          </coding>
        </code>
        <subject>
          <reference value="urn:uuid:e873e284-eff0-4435-b125-bef990b7d871" />
        </subject>
        <effectiveDateTime value="2018-02-19T16:48:06.4988220-05:00" />
        <performer>
          <reference value="urn:uuid:ffa0d2cb-cd42-4542-b814-35b1a09a9c4d" />
        </performer>
        <component>
          <code>
            <coding>
              <system value="http://loinc.org" />
              <code value="80616-6" />
              <display value="Date and time pronounced dead" />
            </coding>
          </code>
          <valueDateTime value="2018-02-20T16:48:06.4988220-05:00" />
        </component>
      </Observation>
    </resource>
  </entry>
</Bundle>


