<Bundle xmlns="http://hl7.org/fhir">
  <id value="urn:uuid:4249411d-dcd3-46e0-8d0e-7193aacc963d" />
  <meta>
    <profile value="http://hl7.org/fhir/us/vrdr/StructureDefinition/VRDR-Death-Certificate-Document" />
  </meta>
  <identifier>
    <value value="42" />
  </identifier>
  <type value="document" />
  <entry>
    <fullUrl value="urn:uuid:d5dade78-9f3b-4702-a2ff-806f15615d92" />
    <resource>
      <Composition>
        <id value="urn:uuid:d5dade78-9f3b-4702-a2ff-806f15615d92" />
        <meta>
          <profile value="http://hl7.org/fhir/us/vrdr/StructureDefinition/VRDR-Death-Certificate" />
        </meta>
        <identifier>
          <value value="1" />
        </identifier>
        <status value="final" />
        <type>
          <coding>
            <system value="http://loinc.org" />
            <code value="64297-5" />
            <display value="Death certificate" />
          </coding>
        </type>
        <subject>
          <reference value="urn:uuid:762de643-6f5d-44d7-b244-9923ebb9ebbe" />
        </subject>
        <date value="2019-01-20T16:47:04.4988220-05:00" />
        <attester>
          <mode value="legal" />
          <time value="2019-01-29T16:48:06.4988220-05:00" />
          <party>
            <reference value="urn:uuid:1598ccb8-e5de-453d-8b96-36ed42d92362" />
          </party>
        </attester>
        <event>
          <code>
            <coding>
              <system value="http://snomed.info/sct" />
              <code value="103693007" />
              <display value="Diagnostic procedure" />
            </coding>
          </code>
          <detail>
            <reference value="urn:uuid:1dc89447-b5cc-4b3f-aa72-d9a8b5c38338" />
          </detail>
        </event>
        <section>
          <entry>
            <reference value="urn:uuid:762de643-6f5d-44d7-b244-9923ebb9ebbe" />
          </entry>
          <entry>
            <reference value="urn:uuid:1598ccb8-e5de-453d-8b96-36ed42d92362" />
          </entry>
          <entry>
            <reference value="urn:uuid:73770062-a541-44ee-9746-f36e573e493b" />
          </entry>
          <entry>
            <reference value="urn:uuid:1dc89447-b5cc-4b3f-aa72-d9a8b5c38338" />
          </entry>
          <entry>
            <reference value="urn:uuid:aac3ceb1-ea7b-4bf6-a631-d9c06b303c3b" />
          </entry>
          <entry>
            <reference value="urn:uuid:b40a2e73-8763-4b6f-b2fa-8cea9a3f8b04" />
          </entry>
          <entry>
            <reference value="urn:uuid:9ff4a779-7959-4510-8486-5ac2016f6b99" />
          </entry>
          <entry>
            <reference value="urn:uuid:5886e4ad-469c-4f88-abff-602f5d99a4f6" />
          </entry>
          <entry>
            <reference value="urn:uuid:58a8b64e-191b-463e-ab32-e27f3c2bc281" />
          </entry>
          <entry>
            <reference value="urn:uuid:3a0d0312-b530-4ed3-960c-6d9670dae32d" />
          </entry>
          <entry>
            <reference value="urn:uuid:48d76cfa-a393-4a1c-8fc9-701f96cb3e22" />
          </entry>
          <entry>
            <reference value="urn:uuid:dd3efca8-c9e7-472f-9db0-0716f57ff168" />
          </entry>
          <entry>
            <reference value="urn:uuid:6fa988f6-9a52-48c4-809b-b97cfc079493" />
          </entry>
          <entry>
            <reference value="urn:uuid:351657d3-2a9c-4142-9730-73f87d46e6c6" />
          </entry>
          <entry>
            <reference value="urn:uuid:aea20c8e-421c-40b1-b095-49df78292ee0" />
          </entry>
          <entry>
            <reference value="urn:uuid:d0e275d5-bf80-4a3a-b3d9-632b3f89a72c" />
          </entry>
          <entry>
            <reference value="urn:uuid:b89b8c6a-0c83-41bd-b009-1b9a783f636c" />
          </entry>
          <entry>
            <reference value="urn:uuid:413871cd-eb17-456b-8b7c-f1e1fc97427e" />
          </entry>
          <entry>
            <reference value="urn:uuid:020ca19a-88f7-45d9-b5d2-0db691a2d369" />
          </entry>
          <entry>
            <reference value="urn:uuid:fd494273-f2df-46ba-be43-631f299db149" />
          </entry>
          <entry>
            <reference value="urn:uuid:3ea36400-9c1e-4448-982a-404a3d00ea21" />
          </entry>
          <entry>
            <reference value="urn:uuid:84c3145e-09c0-46bf-bd6e-b1344177e95c" />
          </entry>
          <entry>
            <reference value="urn:uuid:c666ae33-000e-442b-a831-f699490b02cb" />
          </entry>
          <entry>
            <reference value="urn:uuid:7dc5d30d-f843-41d0-a47b-9174ebe4e4b0" />
          </entry>
          <entry>
            <reference value="urn:uuid:7b7e80f5-78d9-40b5-aed8-ec8d8b38a780" />
          </entry>
          <entry>
            <reference value="urn:uuid:c74f3bcb-24bd-43e4-a896-30d6091eada7" />
          </entry>
          <entry>
            <reference value="urn:uuid:2aac4603-8b9e-415a-95e3-832b7fca5019" />
          </entry>
          <entry>
            <reference value="urn:uuid:514f4882-908d-41f9-99af-dc6bfbfcf2d9" />
          </entry>
          <entry>
            <reference value="urn:uuid:1c47bd47-6496-4578-bb34-c180b3b292dd" />
          </entry>
          <entry>
            <reference value="urn:uuid:e69e1672-c69c-42d3-9719-7d8c2f50e15f" />
          </entry>
          <entry>
            <reference value="urn:uuid:013fc477-b1fc-4ce2-b240-f032eaeeacb1" />
          </entry>
          <entry>
            <reference value="urn:uuid:cb9a1fea-247e-4c66-8ba7-008e51640624" />
          </entry>
        </section>
      </Composition>
    </resource>
  </entry>
  <entry>
    <fullUrl value="urn:uuid:762de643-6f5d-44d7-b244-9923ebb9ebbe" />
    <resource>
      <Patient>
        <id value="urn:uuid:762de643-6f5d-44d7-b244-9923ebb9ebbe" />
        <meta>
          <profile value="http://hl7.org/fhir/us/vrdr/StructureDefinition/VRDR-Decedent" />
        </meta>
        <extension url="http://hl7.org/fhir/us/core/StructureDefinition/us-core-birthsex">
          <valueCodeableConcept>
            <coding>
              <system value="http://hl7.org/fhir/us/core/ValueSet/us-core-birthsex" />
              <code value="M" />
              <display value="Male" />
            </coding>
          </valueCodeableConcept>
        </extension>
        <extension url="http://hl7.org/fhir/us/core/StructureDefinition/us-core-ethnicity">
          <extension url="ombCategory">
            <valueCoding>
              <system value="urn:oid:2.16.840.1.113883.6.238" />
              <code value="2135-2" />
              <display value="Hispanic or Latino" />
            </valueCoding>
          </extension>
          <extension url="detailed">
            <valueCoding>
              <system value="urn:oid:2.16.840.1.113883.6.238" />
              <code value="2180-8" />
              <display value="Puerto Rican" />
            </valueCoding>
          </extension>
          <extension url="text">
            <valueString value="Hispanic or Latino, Puerto Rican" />
          </extension>
        </extension>
        <extension url="http://hl7.org/fhir/us/core/StructureDefinition/us-core-race">
          <extension url="ombCategory">
            <valueCoding>
              <system value="urn:oid:2.16.840.1.113883.6.238" />
              <code value="2106-3" />
              <display value="White" />
            </valueCoding>
          </extension>
          <extension url="ombCategory">
            <valueCoding>
              <system value="urn:oid:2.16.840.1.113883.6.238" />
              <code value="2076-8" />
              <display value="Native Hawaiian or Other Pacific Islander" />
            </valueCoding>
          </extension>
          <extension url="text">
            <valueString value="White, Native Hawaiian or Other Pacific Islander" />
          </extension>
        </extension>
        <extension url="http://hl7.org/fhir/StructureDefinition/birthPlace">
          <valueAddress>
            <line value="1011 Example Street" />
            <line value="Line 2" />
            <city value="Bedford" />
            <district value="Middlesex" />
            <state value="Massachusetts" />
            <postalCode value="01730" />
            <country value="United States" />
          </valueAddress>
        </extension>
        <identifier>
          <type>
            <coding>
              <code value="BR" />
              <display value="Social Beneficiary Identifier" />
            </coding>
          </type>
          <system value="http://hl7.org/fhir/sid/us-ssn" />
          <value value="123456789" />
        </identifier>
        <name>
          <use value="official" />
          <family value="Last" />
          <given value="Example" />
          <given value="Something" />
          <given value="Middle" />
          <suffix value="Jr." />
        </name>
        <name>
          <use value="nickname" />
          <family value="LastNameAlias" />
          <given value="FirstNameAlias" />
          <given value="MiddleAlias" />
        </name>
        <gender value="male" />
        <birthDate value="1940-02-19T16:48:06.4988220-05:00" />
        <address>
          <line value="101 Example Street" />
          <line value="Line 2" />
          <city value="Bedford" />
          <district value="Middlesex" />
          <state value="Massachusetts" />
          <postalCode value="01730" />
          <country value="United States" />
        </address>
        <maritalStatus>
          <coding>
            <system value="http://hl7.org/fhir/v3/MaritalStatus" />
            <code value="S" />
            <display value="Never Married" />
          </coding>
        </maritalStatus>
      </Patient>
    </resource>
  </entry>
  <entry>
    <fullUrl value="urn:uuid:1598ccb8-e5de-453d-8b96-36ed42d92362" />
    <resource>
      <Practitioner>
        <id value="urn:uuid:1598ccb8-e5de-453d-8b96-36ed42d92362" />
        <meta>
          <profile value="http://hl7.org/fhir/us/vrdr/StructureDefinition/VRDR-Certifier" />
        </meta>
        <name>
          <use value="official" />
          <family value="Last" />
          <given value="Doctor" />
          <given value="Middle" />
          <suffix value="Jr." />
        </name>
        <address>
          <line value="11 Example Street" />
          <line value="Line 2" />
          <city value="Bedford" />
          <district value="Middlesex" />
          <state value="Massachusetts" />
          <postalCode value="01730" />
          <country value="United States" />
        </address>
        <qualification>
          <identifier>
            <value value="789123456" />
          </identifier>
          <code>
            <coding>
              <system value="http://hl7.org/fhir/v2/0360/2.7" />
              <code value="MD" />
              <display value="Doctor of Medicine" />
            </coding>
          </code>
        </qualification>
      </Practitioner>
    </resource>
  </entry>
  <entry>
    <fullUrl value="urn:uuid:73770062-a541-44ee-9746-f36e573e493b" />
    <resource>
      <Practitioner>
        <id value="urn:uuid:73770062-a541-44ee-9746-f36e573e493b" />
        <meta>
          <profile value="http://hl7.org/fhir/us/vrdr/StructureDefinition/VRDR-Mortician" />
        </meta>
        <name>
          <use value="official" />
          <family value="Last" />
          <given value="FD" />
          <given value="Middle" />
          <suffix value="Jr." />
        </name>
        <qualification>
          <identifier>
            <value value="9876543210" />
          </identifier>
        </qualification>
      </Practitioner>
    </resource>
  </entry>
  <entry>
    <fullUrl value="urn:uuid:1dc89447-b5cc-4b3f-aa72-d9a8b5c38338" />
    <resource>
      <Procedure>
        <id value="urn:uuid:1dc89447-b5cc-4b3f-aa72-d9a8b5c38338" />
        <meta>
          <profile value="http://hl7.org/fhir/us/vrdr/StructureDefinition/VRDR-Death-Certification" />
        </meta>
        <status value="completed" />
        <category>
          <coding>
            <system value="http://snomed.info/sct" />
            <code value="103693007" />
            <display value="Diagnostic procedure" />
          </coding>
        </category>
        <code>
          <coding>
            <system value="http://snomed.info/sct" />
            <code value="308646001" />
            <display value="Death certification" />
          </coding>
        </code>
        <performedDateTime value="2019-01-29T16:48:06.4988220-05:00" />
        <performer>
          <role>
            <coding>
              <system value="http://snomed.info/sct" />
              <code value="309343006" />
              <display value="Physician" />
            </coding>
          </role>
          <actor>
            <reference value="urn:uuid:1598ccb8-e5de-453d-8b96-36ed42d92362" />
          </actor>
        </performer>
      </Procedure>
    </resource>
  </entry>
  <entry>
    <fullUrl value="urn:uuid:aac3ceb1-ea7b-4bf6-a631-d9c06b303c3b" />
    <resource>
      <Organization>
        <id value="urn:uuid:aac3ceb1-ea7b-4bf6-a631-d9c06b303c3b" />
        <meta>
          <profile value="http://hl7.org/fhir/us/vrdr/StructureDefinition/VRDR-Interested-Party" />
        </meta>
        <identifier>
          <value value="1010101" />
        </identifier>
        <active value="true" />
        <type>
          <coding>
            <system value="http://terminology.hl7.org/CodeSystem/organization-type" />
            <code value="prov" />
            <display value="Healthcare Provider" />
          </coding>
        </type>
        <name value="Example Hospital" />
        <address>
          <line value="10 Example Street" />
          <line value="Line 2" />
          <city value="Bedford" />
          <district value="Middlesex" />
          <state value="Massachusetts" />
          <postalCode value="01730" />
          <country value="United States" />
        </address>
      </Organization>
    </resource>
  </entry>
  <entry>
    <fullUrl value="urn:uuid:b40a2e73-8763-4b6f-b2fa-8cea9a3f8b04" />
    <resource>
      <Organization>
        <id value="urn:uuid:b40a2e73-8763-4b6f-b2fa-8cea9a3f8b04" />
        <meta>
          <profile value="http://hl7.org/fhir/us/vrdr/StructureDefinition/VRDR-Funeral-Home" />
        </meta>
        <type>
          <coding>
            <code value="bus" />
            <display value="Non-Healthcare Business or Corporation" />
          </coding>
        </type>
        <name value="Smith Funeral Home" />
        <address>
          <line value="1011010 Example Street" />
          <line value="Line 2" />
          <city value="Bedford" />
          <district value="Middlesex" />
          <state value="Massachusetts" />
          <postalCode value="01730" />
          <country value="United States" />
        </address>
      </Organization>
    </resource>
  </entry>
  <entry>
    <fullUrl value="urn:uuid:9ff4a779-7959-4510-8486-5ac2016f6b99" />
    <resource>
      <PractitionerRole>
        <id value="urn:uuid:9ff4a779-7959-4510-8486-5ac2016f6b99" />
        <meta>
          <profile value="http://hl7.org/fhir/us/vrdr/StructureDefinition/VRDR-Funeral-Home-Director" />
        </meta>
        <practitioner>
          <reference value="urn:uuid:73770062-a541-44ee-9746-f36e573e493b" />
        </practitioner>
        <organization>
          <reference value="urn:uuid:b40a2e73-8763-4b6f-b2fa-8cea9a3f8b04" />
        </organization>
      </PractitionerRole>
    </resource>
  </entry>
  <entry>
    <fullUrl value="urn:uuid:5886e4ad-469c-4f88-abff-602f5d99a4f6" />
    <resource>
      <List>
        <id value="urn:uuid:5886e4ad-469c-4f88-abff-602f5d99a4f6" />
        <meta>
          <profile value="http://hl7.org/fhir/us/vrdr/StructureDefinition/VRDR-Cause-of-Death-Pathway" />
        </meta>
        <status value="current" />
        <mode value="snapshot" />
        <source>
          <reference value="urn:uuid:1598ccb8-e5de-453d-8b96-36ed42d92362" />
        </source>
        <orderedBy>
          <coding>
            <code value="priority" />
          </coding>
        </orderedBy>
        <entry>
          <item>
            <reference value="urn:uuid:dd3efca8-c9e7-472f-9db0-0716f57ff168" />
          </item>
        </entry>
        <entry>
          <item>
            <reference value="urn:uuid:6fa988f6-9a52-48c4-809b-b97cfc079493" />
          </item>
        </entry>
        <entry>
          <item>
            <reference value="urn:uuid:351657d3-2a9c-4142-9730-73f87d46e6c6" />
          </item>
        </entry>
        <entry>
          <item>
            <reference value="urn:uuid:aea20c8e-421c-40b1-b095-49df78292ee0" />
          </item>
        </entry>
      </List>
    </resource>
  </entry>
  <entry>
    <fullUrl value="urn:uuid:58a8b64e-191b-463e-ab32-e27f3c2bc281" />
    <resource>
      <Location>
        <id value="urn:uuid:58a8b64e-191b-463e-ab32-e27f3c2bc281" />
        <meta>
          <profile value="http://hl7.org/fhir/us/vrdr/StructureDefinition/VRDR-Disposition-Location" />
        </meta>
        <name value="Bedford Cemetery" />
        <address>
          <line value="603 Example Street" />
          <line value="Line 2" />
          <city value="Bedford" />
          <district value="Middlesex" />
          <state value="Massachusetts" />
          <postalCode value="01730" />
          <country value="United States" />
        </address>
      </Location>
    </resource>
  </entry>
  <entry>
    <fullUrl value="urn:uuid:3a0d0312-b530-4ed3-960c-6d9670dae32d" />
    <resource>
      <Observation>
        <id value="urn:uuid:3a0d0312-b530-4ed3-960c-6d9670dae32d" />
        <meta>
          <profile value="http://hl7.org/fhir/us/vrdr/StructureDefinition/VRDR-Manner-of-Death" />
        </meta>
        <status value="final" />
        <code>
          <coding>
            <system value="http://loinc.org" />
            <code value="69449-7" />
            <display value="Manner of death" />
          </coding>
        </code>
        <subject>
          <reference value="urn:uuid:762de643-6f5d-44d7-b244-9923ebb9ebbe" />
        </subject>
        <performer>
          <reference value="urn:uuid:1598ccb8-e5de-453d-8b96-36ed42d92362" />
        </performer>
        <valueCodeableConcept>
          <coding>
            <code value="7878000" />
            <display value="Accident" />
          </coding>
        </valueCodeableConcept>
      </Observation>
    </resource>
  </entry>
  <entry>
    <fullUrl value="urn:uuid:48d76cfa-a393-4a1c-8fc9-701f96cb3e22" />
    <resource>
      <Condition>
        <id value="urn:uuid:48d76cfa-a393-4a1c-8fc9-701f96cb3e22" />
        <meta>
          <profile value="http://hl7.org/fhir/us/vrdr/StructureDefinition/VRDR-Condition-Contributing-To-Death" />
        </meta>
        <code>
          <text value="Example Contributing Conditions" />
        </code>
        <subject>
          <reference value="urn:uuid:762de643-6f5d-44d7-b244-9923ebb9ebbe" />
        </subject>
      </Condition>
    </resource>
  </entry>
  <entry>
    <fullUrl value="urn:uuid:dd3efca8-c9e7-472f-9db0-0716f57ff168" />
    <resource>
      <Condition>
        <id value="urn:uuid:dd3efca8-c9e7-472f-9db0-0716f57ff168" />
        <meta>
          <profile value="http://hl7.org/fhir/us/vrdr/StructureDefinition/VRDR-Cause-Of-Death-Condition" />
        </meta>
        <code>
          <coding>
            <system value="http://hl7.org/fhir/sid/icd-10" />
            <code value="I21.0" />
            <display value="Acute transmural myocardial infarction of anterior wall" />
          </coding>
          <text value="Rupture of myocardium" />
        </code>
        <subject>
          <reference value="urn:uuid:762de643-6f5d-44d7-b244-9923ebb9ebbe" />
        </subject>
        <onsetString value="minutes" />
        <asserter>
          <reference value="urn:uuid:1598ccb8-e5de-453d-8b96-36ed42d92362" />
        </asserter>
      </Condition>
    </resource>
  </entry>
  <entry>
    <fullUrl value="urn:uuid:6fa988f6-9a52-48c4-809b-b97cfc079493" />
    <resource>
      <Condition>
        <id value="urn:uuid:6fa988f6-9a52-48c4-809b-b97cfc079493" />
        <meta>
          <profile value="http://hl7.org/fhir/us/vrdr/StructureDefinition/VRDR-Cause-Of-Death-Condition" />
        </meta>
        <code>
          <coding>
            <system value="http://hl7.org/fhir/sid/icd-10" />
            <code value="I21.9" />
            <display value="Acute myocardial infarction, unspecified" />
          </coding>
          <text value="Acute myocardial infarction" />
        </code>
        <subject>
          <reference value="urn:uuid:762de643-6f5d-44d7-b244-9923ebb9ebbe" />
        </subject>
        <onsetString value="6 days" />
        <asserter>
          <reference value="urn:uuid:1598ccb8-e5de-453d-8b96-36ed42d92362" />
        </asserter>
      </Condition>
    </resource>
  </entry>
  <entry>
    <fullUrl value="urn:uuid:351657d3-2a9c-4142-9730-73f87d46e6c6" />
    <resource>
      <Condition>
        <id value="urn:uuid:351657d3-2a9c-4142-9730-73f87d46e6c6" />
        <meta>
          <profile value="http://hl7.org/fhir/us/vrdr/StructureDefinition/VRDR-Cause-Of-Death-Condition" />
        </meta>
        <code>
          <text value="Coronary artery thrombosis" />
        </code>
        <subject>
          <reference value="urn:uuid:762de643-6f5d-44d7-b244-9923ebb9ebbe" />
        </subject>
        <onsetString value="5 years" />
        <asserter>
          <reference value="urn:uuid:1598ccb8-e5de-453d-8b96-36ed42d92362" />
        </asserter>
      </Condition>
    </resource>
  </entry>
  <entry>
    <fullUrl value="urn:uuid:aea20c8e-421c-40b1-b095-49df78292ee0" />
    <resource>
      <Condition>
        <id value="urn:uuid:aea20c8e-421c-40b1-b095-49df78292ee0" />
        <meta>
          <profile value="http://hl7.org/fhir/us/vrdr/StructureDefinition/VRDR-Cause-Of-Death-Condition" />
        </meta>
        <code>
          <text value="Atherosclerotic coronary artery disease" />
        </code>
        <subject>
          <reference value="urn:uuid:762de643-6f5d-44d7-b244-9923ebb9ebbe" />
        </subject>
        <onsetString value="7 years" />
        <asserter>
          <reference value="urn:uuid:1598ccb8-e5de-453d-8b96-36ed42d92362" />
        </asserter>
      </Condition>
    </resource>
  </entry>
  <entry>
    <fullUrl value="urn:uuid:d0e275d5-bf80-4a3a-b3d9-632b3f89a72c" />
    <resource>
      <RelatedPerson>
        <id value="urn:uuid:d0e275d5-bf80-4a3a-b3d9-632b3f89a72c" />
        <meta>
          <profile value="http://hl7.org/fhir/us/vrdr/StructureDefinition/VRDR-Decedent-Father" />
        </meta>
        <patient>
          <reference value="urn:uuid:762de643-6f5d-44d7-b244-9923ebb9ebbe" />
        </patient>
        <relationship>
          <coding>
            <code value="FTH" />
          </coding>
        </relationship>
        <name>
          <family value="Last" />
          <given value="Father" />
          <given value="Middle" />
          <suffix value="Sr." />
        </name>
      </RelatedPerson>
    </resource>
  </entry>
  <entry>
    <fullUrl value="urn:uuid:b89b8c6a-0c83-41bd-b009-1b9a783f636c" />
    <resource>
      <RelatedPerson>
        <id value="urn:uuid:b89b8c6a-0c83-41bd-b009-1b9a783f636c" />
        <meta>
          <profile value="http://hl7.org/fhir/us/vrdr/StructureDefinition/VRDR-Decedent-Mother" />
        </meta>
        <patient>
          <reference value="urn:uuid:762de643-6f5d-44d7-b244-9923ebb9ebbe" />
        </patient>
        <relationship>
          <coding>
            <code value="MTH" />
          </coding>
        </relationship>
        <name>
          <family value="Maiden" />
          <given value="Mother" />
          <given value="Middle" />
          <suffix value="Dr." />
        </name>
      </RelatedPerson>
    </resource>
  </entry>
  <entry>
    <fullUrl value="urn:uuid:413871cd-eb17-456b-8b7c-f1e1fc97427e" />
    <resource>
      <RelatedPerson>
        <id value="urn:uuid:413871cd-eb17-456b-8b7c-f1e1fc97427e" />
        <meta>
          <profile value="http://hl7.org/fhir/us/vrdr/StructureDefinition/VRDR-Decedent-Spouse" />
        </meta>
        <patient>
          <reference value="urn:uuid:762de643-6f5d-44d7-b244-9923ebb9ebbe" />
        </patient>
        <relationship>
          <coding>
            <code value="SPS" />
          </coding>
        </relationship>
        <name>
          <family value="Last" />
          <given value="Spouse" />
          <given value="Middle" />
          <suffix value="Ph.D." />
        </name>
      </RelatedPerson>
    </resource>
  </entry>
  <entry>
    <fullUrl value="urn:uuid:020ca19a-88f7-45d9-b5d2-0db691a2d369" />
    <resource>
      <Observation>
        <id value="urn:uuid:020ca19a-88f7-45d9-b5d2-0db691a2d369" />
        <meta>
          <profile value="http://hl7.org/fhir/us/vrdr/StructureDefinition/VRDR-Decedent-Education-Level" />
        </meta>
        <status value="final" />
        <code>
          <coding>
            <system value="http://loinc.org" />
            <code value="80913-7" />
            <display value="Highest level of education" />
          </coding>
        </code>
        <subject>
          <reference value="urn:uuid:762de643-6f5d-44d7-b244-9923ebb9ebbe" />
        </subject>
        <valueCodeableConcept>
          <coding>
            <system value="http://hl7.org/fhir/v3/EducationLevel" />
            <code value="BD" />
            <display value="College or baccalaureate degree complete" />
          </coding>
        </valueCodeableConcept>
      </Observation>
    </resource>
  </entry>
  <entry>
    <fullUrl value="urn:uuid:fd494273-f2df-46ba-be43-631f299db149" />
    <resource>
      <Observation>
        <id value="urn:uuid:fd494273-f2df-46ba-be43-631f299db149" />
        <meta>
          <profile value="http://hl7.org/fhir/us/vrdr/StructureDefinition/VRDR-Birth-Record-Identifier" />
        </meta>
        <status value="final" />
        <code>
          <coding>
            <code value="BR" />
          </coding>
        </code>
        <subject>
          <reference value="urn:uuid:762de643-6f5d-44d7-b244-9923ebb9ebbe" />
        </subject>
        <valueString value="4242123" />
      </Observation>
    </resource>
  </entry>
  <entry>
    <fullUrl value="urn:uuid:3ea36400-9c1e-4448-982a-404a3d00ea21" />
    <resource>
      <Observation>
        <id value="urn:uuid:3ea36400-9c1e-4448-982a-404a3d00ea21" />
        <meta>
          <profile value="http://hl7.org/fhir/us/vrdr/StructureDefinition/VRDR-Decedent-Employment-History" />
        </meta>
        <status value="final" />
        <code>
          <coding>
            <system value="http://loinc.org" />
            <code value="74165-2" />
            <display value="History of employment status" />
          </coding>
        </code>
        <subject>
          <reference value="urn:uuid:762de643-6f5d-44d7-b244-9923ebb9ebbe" />
        </subject>
        <component>
          <code>
            <coding>
              <system value="http://loinc.org" />
              <code value="21847-9" />
              <display value="Usual occupation" />
            </coding>
          </code>
          <valueCodeableConcept>
            <coding>
              <system value="http://hl7.org/fhir/ValueSet/occupation-cdc-census-2010" />
              <code value="1340" />
              <display value="Biomedical engineers" />
            </coding>
          </valueCodeableConcept>
        </component>
        <component>
          <code>
            <coding>
              <system value="http://loinc.org" />
              <code value="21844-6" />
              <display value="Usual industry" />
            </coding>
          </code>
          <valueCodeableConcept>
            <coding>
              <system value="http://hl7.org/fhir/ValueSet/industry-cdc-census-2010" />
              <code value="7280" />
              <display value="Accounting, tax preparation, bookkeeping, and payroll services" />
            </coding>
          </valueCodeableConcept>
        </component>
        <component>
          <code>
            <coding>
              <system value="http://loinc.org" />
              <code value="55280-2" />
              <display value="Military service" />
            </coding>
          </code>
          <valueCodeableConcept>
            <coding>
              <system value="http://hl7.org/fhir/ValueSet/v2-0532" />
              <code value="Y" />
              <display value="Yes" />
            </coding>
          </valueCodeableConcept>
        </component>
      </Observation>
    </resource>
  </entry>
  <entry>
    <fullUrl value="urn:uuid:84c3145e-09c0-46bf-bd6e-b1344177e95c" />
    <resource>
      <Observation>
        <id value="urn:uuid:84c3145e-09c0-46bf-bd6e-b1344177e95c" />
        <meta>
          <profile value="http://hl7.org/fhir/us/vrdr/StructureDefinition/VRDR-Decedent-Disposition-Method" />
        </meta>
        <extension url="http://hl7.org/fhir/us/vrdr/StructureDefinition/VRDR-Disposition-Location">
          <valueReference>
            <reference value="urn:uuid:58a8b64e-191b-463e-ab32-e27f3c2bc281" />
          </valueReference>
        </extension>
        <status value="final" />
        <code>
          <coding>
            <system value="http://loinc.org" />
            <code value="80905-3" />
            <display value="Body disposition method" />
          </coding>
        </code>
        <subject>
          <reference value="urn:uuid:762de643-6f5d-44d7-b244-9923ebb9ebbe" />
        </subject>
        <performer>
          <reference value="urn:uuid:73770062-a541-44ee-9746-f36e573e493b" />
        </performer>
        <valueCodeableConcept>
          <coding>
            <system value="http://snomed.info/sct" />
            <code value="449971000124106" />
            <display value="Burial" />
          </coding>
        </valueCodeableConcept>
      </Observation>
    </resource>
  </entry>
  <entry>
    <fullUrl value="urn:uuid:c666ae33-000e-442b-a831-f699490b02cb" />
    <resource>
      <Observation>
        <id value="urn:uuid:c666ae33-000e-442b-a831-f699490b02cb" />
        <meta>
          <profile value="http://hl7.org/fhir/us/vrdr/StructureDefinition/VRDR-Autopsy-Performed-Indicator" />
        </meta>
        <status value="final" />
        <code>
          <coding>
            <system value="http://loinc.org" />
            <code value="85699-7" />
            <display value="Autopsy was performed" />
          </coding>
        </code>
        <subject>
          <reference value="urn:uuid:762de643-6f5d-44d7-b244-9923ebb9ebbe" />
        </subject>
        <valueCodeableConcept>
          <coding>
            <system value="http://hl7.org/fhir/ValueSet/v2-0532" />
            <code value="Y" />
            <display value="Yes" />
          </coding>
        </valueCodeableConcept>
        <component>
          <code>
            <coding>
              <system value="http://loinc.org" />
              <code value="69436-4" />
              <display value="Autopsy results available" />
            </coding>
          </code>
          <valueCodeableConcept>
            <coding>
              <system value="http://hl7.org/fhir/ValueSet/v2-0532" />
              <code value="Y" />
              <display value="Yes" />
            </coding>
          </valueCodeableConcept>
        </component>
      </Observation>
    </resource>
  </entry>
  <entry>
    <fullUrl value="urn:uuid:7dc5d30d-f843-41d0-a47b-9174ebe4e4b0" />
    <resource>
      <Observation>
        <id value="urn:uuid:7dc5d30d-f843-41d0-a47b-9174ebe4e4b0" />
        <meta>
          <profile value="http://hl7.org/fhir/us/vrdr/StructureDefinition/VRDR-Decedent-Age" />
        </meta>
        <status value="final" />
        <code>
          <coding>
            <system value="http://loinc.org" />
            <code value="30525-0" />
            <display value="Age" />
          </coding>
        </code>
        <subject>
          <reference value="urn:uuid:762de643-6f5d-44d7-b244-9923ebb9ebbe" />
        </subject>
        <valueQuantity>
          <value value="100" />
          <unit value="a" />
        </valueQuantity>
      </Observation>
    </resource>
  </entry>
  <entry>
    <fullUrl value="urn:uuid:7b7e80f5-78d9-40b5-aed8-ec8d8b38a780" />
    <resource>
      <Observation>
        <id value="urn:uuid:7b7e80f5-78d9-40b5-aed8-ec8d8b38a780" />
        <meta>
          <profile value="http://hl7.org/fhir/us/vrdr/StructureDefinition/VRDR-Decedent-Pregnancy" />
        </meta>
        <status value="final" />
        <code>
          <coding>
            <system value="http://loinc.org" />
            <code value="69442-2" />
            <display value="Timing of recent pregnancy in relation to death" />
          </coding>
        </code>
        <subject>
          <reference value="urn:uuid:762de643-6f5d-44d7-b244-9923ebb9ebbe" />
        </subject>
        <valueCodeableConcept>
          <coding>
            <system value="http://hl7.org/fhir/stu3/valueset-PregnancyStatusVS" />
            <code value="PHC1260" />
            <display value="Not pregnant within past year" />
          </coding>
        </valueCodeableConcept>
      </Observation>
    </resource>
  </entry>
  <entry>
    <fullUrl value="urn:uuid:c74f3bcb-24bd-43e4-a896-30d6091eada7" />
    <resource>
      <Observation>
        <id value="urn:uuid:c74f3bcb-24bd-43e4-a896-30d6091eada7" />
        <meta>
          <profile value="http://hl7.org/fhir/us/vrdr/StructureDefinition/VRDR-Decedent-Transportation-Role" />
        </meta>
        <status value="final" />
        <code>
          <coding>
            <system value="http://loinc.org" />
            <code value="69451-3" />
            <display value="Transportation role of decedent" />
          </coding>
        </code>
        <subject>
          <reference value="urn:uuid:762de643-6f5d-44d7-b244-9923ebb9ebbe" />
        </subject>
        <valueCodeableConcept>
          <coding>
            <system value="http://hl7.org/fhir/stu3/valueset-TransportationRelationships" />
            <code value="example-code" />
            <display value="Example Code" />
          </coding>
        </valueCodeableConcept>
      </Observation>
    </resource>
  </entry>
  <entry>
    <fullUrl value="urn:uuid:2aac4603-8b9e-415a-95e3-832b7fca5019" />
    <resource>
      <Observation>
        <id value="urn:uuid:2aac4603-8b9e-415a-95e3-832b7fca5019" />
        <meta>
          <profile value="http://hl7.org/fhir/us/vrdr/StructureDefinition/VRDR-Examiner-Contacted" />
        </meta>
        <status value="final" />
        <code>
          <coding>
            <system value="http://loinc.org" />
            <code value="74497-9" />
            <display value="Medical examiner or coroner was contacted" />
          </coding>
        </code>
        <subject>
          <reference value="urn:uuid:762de643-6f5d-44d7-b244-9923ebb9ebbe" />
        </subject>
        <valueBoolean value="false" />
      </Observation>
    </resource>
  </entry>
  <entry>
    <fullUrl value="urn:uuid:514f4882-908d-41f9-99af-dc6bfbfcf2d9" />
    <resource>
      <Observation>
        <id value="urn:uuid:514f4882-908d-41f9-99af-dc6bfbfcf2d9" />
        <meta>
          <profile value="http://hl7.org/fhir/us/vrdr/StructureDefinition/VRDR-Tobacco-Use-Contributed-To-Death" />
        </meta>
        <status value="final" />
        <code>
          <coding>
            <system value="http://loinc.org" />
            <code value="69443-0" />
            <display value="Did tobacco use contribute to death" />
          </coding>
        </code>
        <subject>
          <reference value="urn:uuid:762de643-6f5d-44d7-b244-9923ebb9ebbe" />
        </subject>
        <valueCodeableConcept>
          <coding>
            <system value="http://hl7.org/fhir/ValueSet/v2-0532" />
            <code value="Y" />
            <display value="Yes" />
          </coding>
        </valueCodeableConcept>
      </Observation>
    </resource>
  </entry>
  <entry>
    <fullUrl value="urn:uuid:1c47bd47-6496-4578-bb34-c180b3b292dd" />
    <resource>
      <Location>
        <id value="urn:uuid:1c47bd47-6496-4578-bb34-c180b3b292dd" />
        <meta>
          <profile value="http://hl7.org/fhir/us/vrdr/StructureDefinition/VRDR-Injury-Location" />
        </meta>
        <name value="Example Injury Location Name" />
        <description value="Example Injury Location Description" />
        <address>
          <line value="781 Example Street" />
          <line value="Line 2" />
          <city value="Bedford" />
          <district value="Middlesex" />
          <state value="Massachusetts" />
          <postalCode value="01730" />
          <country value="United States" />
        </address>
      </Location>
    </resource>
  </entry>
  <entry>
    <fullUrl value="urn:uuid:e69e1672-c69c-42d3-9719-7d8c2f50e15f" />
    <resource>
      <Observation>
        <id value="urn:uuid:e69e1672-c69c-42d3-9719-7d8c2f50e15f" />
        <meta>
          <profile value="http://hl7.org/fhir/us/vrdr/StructureDefinition/VRDR-Injury-Incident" />
        </meta>
        <status value="final" />
        <code>
          <coding>
            <system value="http://loinc.org" />
            <code value="11374-6" />
            <display value="Injury incident description" />
          </coding>
        </code>
        <subject>
          <reference value="urn:uuid:762de643-6f5d-44d7-b244-9923ebb9ebbe" />
        </subject>
        <effectiveDateTime value="2018-02-19T16:48:06.4988220-05:00" />
      </Observation>
    </resource>
  </entry>
  <entry>
    <fullUrl value="urn:uuid:013fc477-b1fc-4ce2-b240-f032eaeeacb1" />
    <resource>
      <Location>
        <id value="urn:uuid:013fc477-b1fc-4ce2-b240-f032eaeeacb1" />
        <meta>
          <profile value="http://hl7.org/fhir/us/vrdr/StructureDefinition/VRDR-Death-Location" />
        </meta>
        <name value="Example Death Location Name" />
        <description value="Example Death Location Description" />
        <address>
          <line value="671 Example Street" />
          <line value="Line 2" />
          <city value="Bedford" />
          <district value="Middlesex" />
          <state value="Massachusetts" />
          <postalCode value="01730" />
          <country value="United States" />
        </address>
      </Location>
    </resource>
  </entry>
  <entry>
    <fullUrl value="urn:uuid:cb9a1fea-247e-4c66-8ba7-008e51640624" />
    <resource>
      <Observation>
        <id value="urn:uuid:cb9a1fea-247e-4c66-8ba7-008e51640624" />
        <meta>
          <profile value="http://hl7.org/fhir/us/vrdr/StructureDefinition/VRDR-Death-Date" />
        </meta>
        <status value="final" />
        <code>
          <coding>
            <system value="http://loinc.org" />
            <code value="81956-5" />
            <display value="Date and time of death" />
          </coding>
        </code>
        <subject>
          <reference value="urn:uuid:762de643-6f5d-44d7-b244-9923ebb9ebbe" />
        </subject>
        <effectiveDateTime value="2018-02-19T16:48:06.4988220-05:00" />
        <performer>
          <reference value="urn:uuid:1598ccb8-e5de-453d-8b96-36ed42d92362" />
        </performer>
        <component>
          <code>
            <coding>
              <system value="http://loinc.org" />
              <code value="80616-6" />
              <display value="Date and time pronounced dead" />
            </coding>
          </code>
          <valueDateTime value="2018-02-20T16:48:06.4988220-05:00" />
        </component>
      </Observation>
    </resource>
  </entry>
</Bundle>


