    {
      "id": "f8ca2e15-ff5a-417c-8cfd-8b37c9ca07b6",
      "resourceType": "Bundle",
      "type": "document",
      "entry": [
        {
          "fullUrl": "urn:uuid:b6332b3a-e83e-4f2e-acbe-75d54ed79d22",
          "resource": {
            "id": "730b49a5-2f73-4458-8093-bcf0822a3097",
            "resourceType": "Composition",
            "subject": {
              "reference": "urn:uuid:e9cd28b9-04b8-412d-8556-d2a54f730ee5"
            },
            "attester": [
              {
                "party": {
                  "reference": "urn:uuid:56e9df3a-401f-4b24-914c-eac9264f5fa3"
                }
              }
            ]
          }
        },
        {
          "fullUrl": "urn:uuid:e9cd28b9-04b8-412d-8556-d2a54f730ee5",
          "resource": {
            "id": "a46e2663-751f-4776-8152-d9d9c5d9840c",
            "resourceType": "Patient"
          }
        },
        {
          "fullUrl": "urn:uuid:56e9df3a-401f-4b24-914c-eac9264f5fa3",
          "resource": {
            "id": "f1e80f64-2c59-4c53-8634-69f35ed77626",
            "resourceType": "Practitioner"
          }
        }
      ]
    }