{
  "resourceType": "Bundle",
  "id": "urn:uuid:854246cb-6ac7-477c-8365-9bcb3127ae95",
  "meta": {
    "profile": [
      "http://hl7.org/fhir/us/vrdr/StructureDefinition/VRDR-Death-Certificate-Document"
    ]
  },
  "identifier": {
    "value": "42"
  },
  "type": "document",
  "entry": [
    {
      "fullUrl": "urn:uuid:64cc03d3-729a-4a68-8192-8659f12694d7",
      "resource": {
        "resourceType": "Composition",
        "id": "urn:uuid:64cc03d3-729a-4a68-8192-8659f12694d7",
        "meta": {
          "profile": [
            "http://hl7.org/fhir/us/vrdr/StructureDefinition/VRDR-Death-Certificate"
          ]
        },
        "identifier": {
          "value": "1"
        },
        "status": "final",
        "type": {
          "coding": [
            {
              "system": "http://loinc.org",
              "code": "64297-5",
              "display": "Death certificate"
            }
          ]
        },
        "subject": {
          "reference": "urn:uuid:69a43dc6-5a4f-4570-966e-3e6a300997f8"
        },
        "date": "2019-01-20T16:47:04.498822-05:00",
        "attester": [
          {
            "mode": [
              "legal"
            ],
            "time": "2019-01-29T16:48:06.498822-05:00",
            "party": {
              "reference": "urn:uuid:d0f7c94d-b3bb-472f-9daf-857113dd783f"
            }
          }
        ],
        "event": [
          {
            "code": [
              {
                "coding": [
                  {
                    "system": "http://snomed.info/sct",
                    "code": "103693007",
                    "display": "Diagnostic procedure"
                  }
                ]
              }
            ],
            "detail": [
              {
                "reference": "urn:uuid:15b58427-0c0d-4deb-a123-3670f5074528"
              }
            ]
          }
        ],
        "section": [
          {
            "entry": [
              {
                "reference": "urn:uuid:69a43dc6-5a4f-4570-966e-3e6a300997f8"
              },
              {
                "reference": "urn:uuid:d0f7c94d-b3bb-472f-9daf-857113dd783f"
              },
              {
                "reference": "urn:uuid:5b3aa904-0e5d-487a-aa81-9b3d2b8011d6"
              },
              {
                "reference": "urn:uuid:15b58427-0c0d-4deb-a123-3670f5074528"
              },
              {
                "reference": "urn:uuid:bdad29cf-4471-41cb-9a13-9cce75a0dd89"
              },
              {
                "reference": "urn:uuid:349beca8-6e5f-47ff-bc9c-911c15c06214"
              },
              {
                "reference": "urn:uuid:5ebdc0f1-aaa3-49b3-b64e-6ca56d9ff0c6"
              },
              {
                "reference": "urn:uuid:4809000d-eb50-4625-b7c1-3c1f7df119bc"
              },
              {
                "reference": "urn:uuid:72fb6c05-337a-4b68-b166-ac3648305648"
              },
              {
                "reference": "urn:uuid:8bb7a307-8168-44cc-b84d-b53a64378a22"
              },
              {
                "reference": "urn:uuid:c812500b-93b8-491d-93a3-a737e0519cff"
              },
              {
                "reference": "urn:uuid:340a76dd-779d-4b6e-86fc-42d47eedac62"
              },
              {
                "reference": "urn:uuid:29f56b2c-28b4-4f98-ac6a-0954bbba94df"
              },
              {
                "reference": "urn:uuid:351b1288-36ee-4bdf-a35b-70bb99988a56"
              },
              {
                "reference": "urn:uuid:2683fee9-5864-4b81-88f3-631463fb1434"
              },
              {
                "reference": "urn:uuid:41f6ba2b-4b53-4780-8c79-99f7741c6e38"
              },
              {
                "reference": "urn:uuid:44e56d44-5235-4344-b74a-594e33cb4b33"
              },
              {
                "reference": "urn:uuid:33ce3ec0-19cc-45f9-9451-bf9733868230"
              },
              {
                "reference": "urn:uuid:a1c9b477-1ca1-4eef-a686-127bc80c4ff4"
              },
              {
                "reference": "urn:uuid:7da38c3a-f5bd-4148-bd0f-796b0bf5aed2"
              },
              {
                "reference": "urn:uuid:79beaea2-e14b-49a7-a695-9ad2cd15cf7a"
              },
              {
                "reference": "urn:uuid:ab09d43d-4c8b-4c63-bcf5-907f414a0a88"
              },
              {
                "reference": "urn:uuid:7fc48bdf-b826-4abb-8195-51acfe4ae98d"
              },
              {
                "reference": "urn:uuid:699342f2-a131-4954-a6cb-a92fea6b27bc"
              },
              {
                "reference": "urn:uuid:2f1c8ddf-0444-44f6-8e46-1623c6ac92e4"
              },
              {
                "reference": "urn:uuid:c6cc4540-6c77-4564-8884-e0491085f1e3"
              },
              {
                "reference": "urn:uuid:39b48755-aa00-43d5-a383-114211739d00"
              },
              {
                "reference": "urn:uuid:42bfb03f-722f-4e41-8639-759b9b584cce"
              },
              {
                "reference": "urn:uuid:a90d1339-2e7f-43cc-a72f-36551accfd4e"
              },
              {
                "reference": "urn:uuid:e7ce72de-93e5-4a21-9dcd-820bdc1b7e68"
              },
              {
                "reference": "urn:uuid:c7bf8488-9b3c-45a5-8da7-f283bb3acbd5"
              },
              {
                "reference": "urn:uuid:8a09fc7c-7e55-44f2-864c-06d3f1f49892"
              }
            ]
          }
        ]
      }
    },
    {
      "fullUrl": "urn:uuid:69a43dc6-5a4f-4570-966e-3e6a300997f8",
      "resource": {
        "resourceType": "Patient",
        "id": "urn:uuid:69a43dc6-5a4f-4570-966e-3e6a300997f8",
        "meta": {
          "profile": [
            "http://hl7.org/fhir/us/vrdr/StructureDefinition/VRDR-Decedent"
          ]
        },
        "extension": [
          {
            "url": "http://hl7.org/fhir/us/core/StructureDefinition/us-core-birthsex",
            "valueCodeableConcept": {
              "coding": [
                {
                  "system": "http://hl7.org/fhir/us/core/ValueSet/us-core-birthsex",
                  "code": "M",
                  "display": "Male"
                }
              ]
            }
          },
          {
            "extension": [
              {
                "url": "ombCategory",
                "valueCoding": {
                  "system": "urn:oid:2.16.840.1.113883.6.238",
                  "code": "2135-2",
                  "display": "Hispanic or Latino"
                }
              },
              {
                "url": "detailed",
                "valueCoding": {
                  "system": "urn:oid:2.16.840.1.113883.6.238",
                  "code": "2180-8",
                  "display": "Puerto Rican"
                }
              },
              {
                "url": "text",
                "valueString": "Hispanic or Latino, Puerto Rican"
              }
            ],
            "url": "http://hl7.org/fhir/us/core/StructureDefinition/us-core-ethnicity"
          },
          {
            "extension": [
              {
                "url": "ombCategory",
                "valueCoding": {
                  "system": "urn:oid:2.16.840.1.113883.6.238",
                  "code": "2106-3",
                  "display": "White"
                }
              },
              {
                "url": "ombCategory",
                "valueCoding": {
                  "system": "urn:oid:2.16.840.1.113883.6.238",
                  "code": "2076-8",
                  "display": "Native Hawaiian or Other Pacific Islander"
                }
              },
              {
                "url": "text",
                "valueString": "White, Native Hawaiian or Other Pacific Islander"
              }
            ],
            "url": "http://hl7.org/fhir/us/core/StructureDefinition/us-core-race"
          },
          {
            "url": "http://hl7.org/fhir/StructureDefinition/birthPlace",
            "valueAddress": {
              "line": [
                "1011 Example Street",
                "Line 2"
              ],
              "city": "Bedford",
              "district": "Middlesex",
              "state": "Massachusetts",
              "postalCode": "01730",
              "country": "United States"
            }
          }
        ],
        "identifier": [
          {
            "type": {
              "coding": [
                {
                  "code": "BR",
                  "display": "Social Beneficiary Identifier"
                }
              ]
            },
            "system": "http://hl7.org/fhir/sid/us-ssn",
            "value": "123456789"
          }
        ],
        "name": [
          {
            "use": "official",
            "family": "Last",
            "given": [
              "Example",
              "Something",
              "Middle"
            ],
            "suffix": [
              "Jr."
            ]
          },
          {
            "use": "nickname",
            "family": "LastNameAlias",
            "given": [
              "FirstNameAlias",
              "MiddleAlias"
            ]
          }
        ],
        "gender": "male",
        "birthDate": "1940-02-19T16:48:06.498822-05:00",
        "address": [
          {
            "line": [
              "101 Example Street",
              "Line 2"
            ],
            "city": "Bedford",
            "district": "Middlesex",
            "state": "Massachusetts",
            "postalCode": "01730",
            "country": "United States"
          }
        ],
        "maritalStatus": {
          "coding": [
            {
              "system": "http://hl7.org/fhir/v3/MaritalStatus",
              "code": "S",
              "display": "Never Married"
            }
          ]
        }
      }
    },
    {
      "fullUrl": "urn:uuid:d0f7c94d-b3bb-472f-9daf-857113dd783f",
      "resource": {
        "resourceType": "Practitioner",
        "id": "urn:uuid:d0f7c94d-b3bb-472f-9daf-857113dd783f",
        "meta": {
          "profile": [
            "http://hl7.org/fhir/us/vrdr/StructureDefinition/VRDR-Certifier"
          ]
        },
        "name": [
          {
            "use": "official",
            "family": "Last",
            "given": [
              "Doctor",
              "Middle"
            ],
            "suffix": [
              "Jr."
            ]
          }
        ],
        "address": [
          {
            "line": [
              "11 Example Street",
              "Line 2"
            ],
            "city": "Bedford",
            "district": "Middlesex",
            "state": "Massachusetts",
            "postalCode": "01730",
            "country": "United States"
          }
        ],
        "qualification": [
          {
            "identifier": [
              {
                "value": "789123456"
              }
            ],
            "code": {
              "coding": [
                {
                  "system": "http://hl7.org/fhir/v2/0360/2.7",
                  "code": "MD",
                  "display": "Doctor of Medicine"
                }
              ]
            }
          }
        ]
      }
    },
    {
      "fullUrl": "urn:uuid:5b3aa904-0e5d-487a-aa81-9b3d2b8011d6",
      "resource": {
        "resourceType": "Practitioner",
        "id": "urn:uuid:5b3aa904-0e5d-487a-aa81-9b3d2b8011d6",
        "meta": {
          "profile": [
            "http://hl7.org/fhir/us/vrdr/StructureDefinition/VRDR-Mortician"
          ]
        },
        "name": [
          {
            "use": "official",
            "family": "Last",
            "given": [
              "FD",
              "Middle"
            ],
            "suffix": [
              "Jr."
            ]
          }
        ],
        "qualification": [
          {
            "identifier": [
              {
                "value": "9876543210"
              }
            ]
          }
        ]
      }
    },
    {
      "fullUrl": "urn:uuid:15b58427-0c0d-4deb-a123-3670f5074528",
      "resource": {
        "resourceType": "Procedure",
        "id": "urn:uuid:15b58427-0c0d-4deb-a123-3670f5074528",
        "meta": {
          "profile": [
            "http://hl7.org/fhir/us/vrdr/StructureDefinition/VRDR-Death-Certification"
          ]
        },
        "status": "completed",
        "category": {
          "coding": [
            {
              "system": "http://snomed.info/sct",
              "code": "103693007",
              "display": "Diagnostic procedure"
            }
          ]
        },
        "code": {
          "coding": [
            {
              "system": "http://snomed.info/sct",
              "code": "308646001",
              "display": "Death certification"
            }
          ]
        },
        "performedDateTime": "2019-01-29T16:48:06.498822-05:00",
        "performer": [
          {
            "role": {
              "coding": [
                {
                  "system": "http://snomed.info/sct",
                  "code": "309343006",
                  "display": "Physician"
                }
              ]
            },
            "actor": {
              "reference": "urn:uuid:d0f7c94d-b3bb-472f-9daf-857113dd783f"
            }
          }
        ]
      }
    },
    {
      "fullUrl": "urn:uuid:bdad29cf-4471-41cb-9a13-9cce75a0dd89",
      "resource": {
        "resourceType": "Organization",
        "id": "urn:uuid:bdad29cf-4471-41cb-9a13-9cce75a0dd89",
        "meta": {
          "profile": [
            "http://hl7.org/fhir/us/vrdr/StructureDefinition/VRDR-Interested-Party"
          ]
        },
        "identifier": [
          {
            "value": "1010101"
          }
        ],
        "active": true,
        "type": [
          {
            "coding": [
              {
                "system": "http://terminology.hl7.org/CodeSystem/organization-type",
                "code": "prov",
                "display": "Healthcare Provider"
              }
            ]
          }
        ],
        "name": "Example Hospital",
        "address": [
          {
            "line": [
              "10 Example Street",
              "Line 2"
            ],
            "city": "Bedford",
            "district": "Middlesex",
            "state": "Massachusetts",
            "postalCode": "01730",
            "country": "United States"
          }
        ]
      }
    },
    {
      "fullUrl": "urn:uuid:349beca8-6e5f-47ff-bc9c-911c15c06214",
      "resource": {
        "resourceType": "Organization",
        "id": "urn:uuid:349beca8-6e5f-47ff-bc9c-911c15c06214",
        "meta": {
          "profile": [
            "http://hl7.org/fhir/us/vrdr/StructureDefinition/VRDR-Funeral-Home"
          ]
        },
        "type": [
          {
            "coding": [
              {
                "code": "bus",
                "display": "Non-Healthcare Business or Corporation"
              }
            ]
          }
        ],
        "name": "Smith Funeral Home",
        "address": [
          {
            "line": [
              "1011010 Example Street",
              "Line 2"
            ],
            "city": "Bedford",
            "district": "Middlesex",
            "state": "Massachusetts",
            "postalCode": "01730",
            "country": "United States"
          }
        ]
      }
    },
    {
      "fullUrl": "urn:uuid:5ebdc0f1-aaa3-49b3-b64e-6ca56d9ff0c6",
      "resource": {
        "resourceType": "PractitionerRole",
        "id": "urn:uuid:5ebdc0f1-aaa3-49b3-b64e-6ca56d9ff0c6",
        "meta": {
          "profile": [
            "http://hl7.org/fhir/us/vrdr/StructureDefinition/VRDR-Funeral-Home-Director"
          ]
        },
        "practitioner": {
          "reference": "urn:uuid:5b3aa904-0e5d-487a-aa81-9b3d2b8011d6"
        },
        "organization": {
          "reference": "urn:uuid:349beca8-6e5f-47ff-bc9c-911c15c06214"
        }
      }
    },
    {
      "fullUrl": "urn:uuid:4809000d-eb50-4625-b7c1-3c1f7df119bc",
      "resource": {
        "resourceType": "List",
        "id": "urn:uuid:4809000d-eb50-4625-b7c1-3c1f7df119bc",
        "meta": {
          "profile": [
            "http://hl7.org/fhir/us/vrdr/StructureDefinition/VRDR-Cause-of-Death-Pathway"
          ]
        },
        "status": "current",
        "mode": "snapshot",
        "source": {
          "reference": "urn:uuid:d0f7c94d-b3bb-472f-9daf-857113dd783f"
        },
        "orderedBy": {
          "coding": [
            {
              "code": "priority"
            }
          ]
        },
        "entry": [
          {
            "item": {
              "reference": "urn:uuid:340a76dd-779d-4b6e-86fc-42d47eedac62"
            }
          },
          {
            "item": {
              "reference": "urn:uuid:29f56b2c-28b4-4f98-ac6a-0954bbba94df"
            }
          },
          {
            "item": {
              "reference": "urn:uuid:351b1288-36ee-4bdf-a35b-70bb99988a56"
            }
          },
          {
            "item": {
              "reference": "urn:uuid:2683fee9-5864-4b81-88f3-631463fb1434"
            }
          }
        ]
      }
    },
    {
      "fullUrl": "urn:uuid:72fb6c05-337a-4b68-b166-ac3648305648",
      "resource": {
        "resourceType": "Location",
        "id": "urn:uuid:72fb6c05-337a-4b68-b166-ac3648305648",
        "meta": {
          "profile": [
            "http://hl7.org/fhir/us/vrdr/StructureDefinition/VRDR-Disposition-Location"
          ]
        },
        "name": "Bedford Cemetery",
        "address": {
          "line": [
            "603 Example Street",
            "Line 2"
          ],
          "city": "Bedford",
          "district": "Middlesex",
          "state": "Massachusetts",
          "postalCode": "01730",
          "country": "United States"
        }
      }
    },
    {
      "fullUrl": "urn:uuid:8bb7a307-8168-44cc-b84d-b53a64378a22",
      "resource": {
        "resourceType": "Observation",
        "id": "urn:uuid:8bb7a307-8168-44cc-b84d-b53a64378a22",
        "meta": {
          "profile": [
            "http://hl7.org/fhir/us/vrdr/StructureDefinition/VRDR-Manner-of-Death"
          ]
        },
        "status": "final",
        "code": {
          "coding": [
            {
              "system": "http://loinc.org",
              "code": "69449-7",
              "display": "Manner of death"
            }
          ]
        },
        "subject": {
          "reference": "urn:uuid:69a43dc6-5a4f-4570-966e-3e6a300997f8"
        },
        "performer": [
          {
            "reference": "urn:uuid:d0f7c94d-b3bb-472f-9daf-857113dd783f"
          }
        ],
        "valueCodeableConcept": {
          "coding": [
            {
              "code": "7878000",
              "display": "Accident"
            }
          ]
        }
      }
    },
    {
      "fullUrl": "urn:uuid:c812500b-93b8-491d-93a3-a737e0519cff",
      "resource": {
        "resourceType": "Condition",
        "id": "urn:uuid:c812500b-93b8-491d-93a3-a737e0519cff",
        "meta": {
          "profile": [
            "http://hl7.org/fhir/us/vrdr/StructureDefinition/VRDR-Condition-Contributing-To-Death"
          ]
        },
        "code": {
          "text": "Example Contributing Conditions"
        },
        "subject": {
          "reference": "urn:uuid:69a43dc6-5a4f-4570-966e-3e6a300997f8"
        }
      }
    },
    {
      "fullUrl": "urn:uuid:340a76dd-779d-4b6e-86fc-42d47eedac62",
      "resource": {
        "resourceType": "Condition",
        "id": "urn:uuid:340a76dd-779d-4b6e-86fc-42d47eedac62",
        "meta": {
          "profile": [
            "http://hl7.org/fhir/us/vrdr/StructureDefinition/VRDR-Cause-Of-Death-Condition"
          ]
        },
        "code": {
          "coding": [
            {
              "system": "http://hl7.org/fhir/sid/icd-10",
              "code": "I21.0",
              "display": "Acute transmural myocardial infarction of anterior wall"
            }
          ],
          "text": "Rupture of myocardium"
        },
        "subject": {
          "reference": "urn:uuid:69a43dc6-5a4f-4570-966e-3e6a300997f8"
        },
        "onsetString": "minutes",
        "asserter": {
          "reference": "urn:uuid:d0f7c94d-b3bb-472f-9daf-857113dd783f"
        }
      }
    },
    {
      "fullUrl": "urn:uuid:29f56b2c-28b4-4f98-ac6a-0954bbba94df",
      "resource": {
        "resourceType": "Condition",
        "id": "urn:uuid:29f56b2c-28b4-4f98-ac6a-0954bbba94df",
        "meta": {
          "profile": [
            "http://hl7.org/fhir/us/vrdr/StructureDefinition/VRDR-Cause-Of-Death-Condition"
          ]
        },
        "code": {
          "coding": [
            {
              "system": "http://hl7.org/fhir/sid/icd-10",
              "code": "I21.9",
              "display": "Acute myocardial infarction, unspecified"
            }
          ],
          "text": "Acute myocardial infarction"
        },
        "subject": {
          "reference": "urn:uuid:69a43dc6-5a4f-4570-966e-3e6a300997f8"
        },
        "onsetString": "6 days",
        "asserter": {
          "reference": "urn:uuid:d0f7c94d-b3bb-472f-9daf-857113dd783f"
        }
      }
    },
    {
      "fullUrl": "urn:uuid:351b1288-36ee-4bdf-a35b-70bb99988a56",
      "resource": {
        "resourceType": "Condition",
        "id": "urn:uuid:351b1288-36ee-4bdf-a35b-70bb99988a56",
        "meta": {
          "profile": [
            "http://hl7.org/fhir/us/vrdr/StructureDefinition/VRDR-Cause-Of-Death-Condition"
          ]
        },
        "code": {
          "text": "Coronary artery thrombosis"
        },
        "subject": {
          "reference": "urn:uuid:69a43dc6-5a4f-4570-966e-3e6a300997f8"
        },
        "onsetString": "5 years",
        "asserter": {
          "reference": "urn:uuid:d0f7c94d-b3bb-472f-9daf-857113dd783f"
        }
      }
    },
    {
      "fullUrl": "urn:uuid:2683fee9-5864-4b81-88f3-631463fb1434",
      "resource": {
        "resourceType": "Condition",
        "id": "urn:uuid:2683fee9-5864-4b81-88f3-631463fb1434",
        "meta": {
          "profile": [
            "http://hl7.org/fhir/us/vrdr/StructureDefinition/VRDR-Cause-Of-Death-Condition"
          ]
        },
        "code": {
          "text": "Atherosclerotic coronary artery disease"
        },
        "subject": {
          "reference": "urn:uuid:69a43dc6-5a4f-4570-966e-3e6a300997f8"
        },
        "onsetString": "7 years",
        "asserter": {
          "reference": "urn:uuid:d0f7c94d-b3bb-472f-9daf-857113dd783f"
        }
      }
    },
    {
      "fullUrl": "urn:uuid:41f6ba2b-4b53-4780-8c79-99f7741c6e38",
      "resource": {
        "resourceType": "RelatedPerson",
        "id": "urn:uuid:41f6ba2b-4b53-4780-8c79-99f7741c6e38",
        "meta": {
          "profile": [
            "http://hl7.org/fhir/us/vrdr/StructureDefinition/VRDR-Decedent-Father"
          ]
        },
        "patient": {
          "reference": "urn:uuid:69a43dc6-5a4f-4570-966e-3e6a300997f8"
        },
        "relationship": {
          "coding": [
            {
              "code": "FTH"
            }
          ]
        },
        "name": [
          {
            "family": "Last",
            "given": [
              "Father",
              "Middle"
            ],
            "suffix": [
              "Sr."
            ]
          }
        ]
      }
    },
    {
      "fullUrl": "urn:uuid:44e56d44-5235-4344-b74a-594e33cb4b33",
      "resource": {
        "resourceType": "RelatedPerson",
        "id": "urn:uuid:44e56d44-5235-4344-b74a-594e33cb4b33",
        "meta": {
          "profile": [
            "http://hl7.org/fhir/us/vrdr/StructureDefinition/VRDR-Decedent-Mother"
          ]
        },
        "patient": {
          "reference": "urn:uuid:69a43dc6-5a4f-4570-966e-3e6a300997f8"
        },
        "relationship": {
          "coding": [
            {
              "code": "MTH"
            }
          ]
        },
        "name": [
          {
            "family": "Maiden",
            "given": [
              "Mother",
              "Middle"
            ],
            "suffix": [
              "Dr."
            ]
          }
        ]
      }
    },
    {
      "fullUrl": "urn:uuid:33ce3ec0-19cc-45f9-9451-bf9733868230",
      "resource": {
        "resourceType": "RelatedPerson",
        "id": "urn:uuid:33ce3ec0-19cc-45f9-9451-bf9733868230",
        "meta": {
          "profile": [
            "http://hl7.org/fhir/us/vrdr/StructureDefinition/VRDR-Decedent-Spouse"
          ]
        },
        "patient": {
          "reference": "urn:uuid:69a43dc6-5a4f-4570-966e-3e6a300997f8"
        },
        "relationship": {
          "coding": [
            {
              "code": "SPS"
            }
          ]
        },
        "name": [
          {
            "family": "Last",
            "given": [
              "Spouse",
              "Middle"
            ],
            "suffix": [
              "Ph.D."
            ]
          }
        ]
      }
    },
    {
      "fullUrl": "urn:uuid:a1c9b477-1ca1-4eef-a686-127bc80c4ff4",
      "resource": {
        "resourceType": "Observation",
        "id": "urn:uuid:a1c9b477-1ca1-4eef-a686-127bc80c4ff4",
        "meta": {
          "profile": [
            "http://hl7.org/fhir/us/vrdr/StructureDefinition/VRDR-Decedent-Education-Level"
          ]
        },
        "status": "final",
        "code": {
          "coding": [
            {
              "system": "http://loinc.org",
              "code": "80913-7",
              "display": "Highest level of education"
            }
          ]
        },
        "subject": {
          "reference": "urn:uuid:69a43dc6-5a4f-4570-966e-3e6a300997f8"
        },
        "valueCodeableConcept": {
          "coding": [
            {
              "system": "http://hl7.org/fhir/v3/EducationLevel",
              "code": "BD",
              "display": "College or baccalaureate degree complete"
            }
          ]
        }
      }
    },
    {
      "fullUrl": "urn:uuid:7da38c3a-f5bd-4148-bd0f-796b0bf5aed2",
      "resource": {
        "resourceType": "Observation",
        "id": "urn:uuid:7da38c3a-f5bd-4148-bd0f-796b0bf5aed2",
        "meta": {
          "profile": [
            "http://hl7.org/fhir/us/vrdr/StructureDefinition/VRDR-Birth-Record-Identifier"
          ]
        },
        "status": "final",
        "code": {
          "coding": [
            {
              "code": "BR"
            }
          ]
        },
        "subject": {
          "reference": "urn:uuid:69a43dc6-5a4f-4570-966e-3e6a300997f8"
        },
        "valueString": "4242123"
      }
    },
    {
      "fullUrl": "urn:uuid:79beaea2-e14b-49a7-a695-9ad2cd15cf7a",
      "resource": {
        "resourceType": "Observation",
        "id": "urn:uuid:79beaea2-e14b-49a7-a695-9ad2cd15cf7a",
        "meta": {
          "profile": [
            "http://hl7.org/fhir/us/vrdr/StructureDefinition/VRDR-Decedent-Employment-History"
          ]
        },
        "status": "final",
        "code": {
          "coding": [
            {
              "system": "http://loinc.org",
              "code": "74165-2",
              "display": "History of employment status"
            }
          ]
        },
        "subject": {
          "reference": "urn:uuid:69a43dc6-5a4f-4570-966e-3e6a300997f8"
        },
        "component": [
          {
            "code": {
              "coding": [
                {
                  "system": "http://loinc.org",
                  "code": "21847-9",
                  "display": "Usual occupation"
                }
              ]
            },
            "valueCodeableConcept": {
              "coding": [
                {
                  "system": "http://hl7.org/fhir/ValueSet/occupation-cdc-census-2010",
                  "code": "1340",
                  "display": "Biomedical engineers"
                }
              ]
            }
          },
          {
            "code": {
              "coding": [
                {
                  "system": "http://loinc.org",
                  "code": "21844-6",
                  "display": "Usual industry"
                }
              ]
            },
            "valueCodeableConcept": {
              "coding": [
                {
                  "system": "http://hl7.org/fhir/ValueSet/industry-cdc-census-2010",
                  "code": "7280",
                  "display": "Accounting, tax preparation, bookkeeping, and payroll services"
                }
              ]
            }
          },
          {
            "code": {
              "coding": [
                {
                  "system": "http://loinc.org",
                  "code": "55280-2",
                  "display": "Military service"
                }
              ]
            },
            "valueCodeableConcept": {
              "coding": [
                {
                  "system": "http://hl7.org/fhir/ValueSet/v2-0532",
                  "code": "Y",
                  "display": "Yes"
                }
              ]
            }
          }
        ]
      }
    },
    {
      "fullUrl": "urn:uuid:ab09d43d-4c8b-4c63-bcf5-907f414a0a88",
      "resource": {
        "resourceType": "Observation",
        "id": "urn:uuid:ab09d43d-4c8b-4c63-bcf5-907f414a0a88",
        "meta": {
          "profile": [
            "http://hl7.org/fhir/us/vrdr/StructureDefinition/VRDR-Decedent-Disposition-Method"
          ]
        },
        "extension": [
          {
            "url": "http://hl7.org/fhir/us/vrdr/StructureDefinition/VRDR-Disposition-Location",
            "valueReference": {
              "reference": "urn:uuid:72fb6c05-337a-4b68-b166-ac3648305648"
            }
          }
        ],
        "status": "final",
        "code": {
          "coding": [
            {
              "system": "http://loinc.org",
              "code": "80905-3",
              "display": "Body disposition method"
            }
          ]
        },
        "subject": {
          "reference": "urn:uuid:69a43dc6-5a4f-4570-966e-3e6a300997f8"
        },
        "performer": [
          {
            "reference": "urn:uuid:5b3aa904-0e5d-487a-aa81-9b3d2b8011d6"
          }
        ],
        "valueCodeableConcept": {
          "coding": [
            {
              "system": "http://snomed.info/sct",
              "code": "449971000124106",
              "display": "Burial"
            }
          ]
        }
      }
    },
    {
      "fullUrl": "urn:uuid:7fc48bdf-b826-4abb-8195-51acfe4ae98d",
      "resource": {
        "resourceType": "Observation",
        "id": "urn:uuid:7fc48bdf-b826-4abb-8195-51acfe4ae98d",
        "meta": {
          "profile": [
            "http://hl7.org/fhir/us/vrdr/StructureDefinition/VRDR-Autopsy-Performed-Indicator"
          ]
        },
        "status": "final",
        "code": {
          "coding": [
            {
              "system": "http://loinc.org",
              "code": "85699-7",
              "display": "Autopsy was performed"
            }
          ]
        },
        "subject": {
          "reference": "urn:uuid:69a43dc6-5a4f-4570-966e-3e6a300997f8"
        },
        "valueCodeableConcept": {
          "coding": [
            {
              "system": "http://hl7.org/fhir/ValueSet/v2-0532",
              "code": "Y",
              "display": "Yes"
            }
          ]
        },
        "component": [
          {
            "code": {
              "coding": [
                {
                  "system": "http://loinc.org",
                  "code": "69436-4",
                  "display": "Autopsy results available"
                }
              ]
            },
            "valueCodeableConcept": {
              "coding": [
                {
                  "system": "http://hl7.org/fhir/ValueSet/v2-0532",
                  "code": "Y",
                  "display": "Yes"
                }
              ]
            }
          }
        ]
      }
    },
    {
      "fullUrl": "urn:uuid:699342f2-a131-4954-a6cb-a92fea6b27bc",
      "resource": {
        "resourceType": "Observation",
        "id": "urn:uuid:699342f2-a131-4954-a6cb-a92fea6b27bc",
        "meta": {
          "profile": [
            "http://hl7.org/fhir/us/vrdr/StructureDefinition/VRDR-Decedent-Age"
          ]
        },
        "status": "final",
        "code": {
          "coding": [
            {
              "system": "http://loinc.org",
              "code": "30525-0",
              "display": "Age"
            }
          ]
        },
        "subject": {
          "reference": "urn:uuid:69a43dc6-5a4f-4570-966e-3e6a300997f8"
        },
        "valueQuantity": {
          "value": 100,
          "unit": "a"
        }
      }
    },
    {
      "fullUrl": "urn:uuid:2f1c8ddf-0444-44f6-8e46-1623c6ac92e4",
      "resource": {
        "resourceType": "Observation",
        "id": "urn:uuid:2f1c8ddf-0444-44f6-8e46-1623c6ac92e4",
        "meta": {
          "profile": [
            "http://hl7.org/fhir/us/vrdr/StructureDefinition/VRDR-Decedent-Pregnancy"
          ]
        },
        "status": "final",
        "code": {
          "coding": [
            {
              "system": "http://loinc.org",
              "code": "69442-2",
              "display": "Timing of recent pregnancy in relation to death"
            }
          ]
        },
        "subject": {
          "reference": "urn:uuid:69a43dc6-5a4f-4570-966e-3e6a300997f8"
        },
        "valueCodeableConcept": {
          "coding": [
            {
              "system": "http://hl7.org/fhir/stu3/valueset-PregnancyStatusVS",
              "code": "PHC1260",
              "display": "Not pregnant within past year"
            }
          ]
        }
      }
    },
    {
      "fullUrl": "urn:uuid:c6cc4540-6c77-4564-8884-e0491085f1e3",
      "resource": {
        "resourceType": "Observation",
        "id": "urn:uuid:c6cc4540-6c77-4564-8884-e0491085f1e3",
        "meta": {
          "profile": [
            "http://hl7.org/fhir/us/vrdr/StructureDefinition/VRDR-Decedent-Transportation-Role"
          ]
        },
        "status": "final",
        "code": {
          "coding": [
            {
              "system": "http://loinc.org",
              "code": "69451-3",
              "display": "Transportation role of decedent"
            }
          ]
        },
        "subject": {
          "reference": "urn:uuid:69a43dc6-5a4f-4570-966e-3e6a300997f8"
        },
        "valueCodeableConcept": {
          "coding": [
            {
              "system": "http://hl7.org/fhir/stu3/valueset-TransportationRelationships",
              "code": "example-code",
              "display": "Example Code"
            }
          ]
        }
      }
    },
    {
      "fullUrl": "urn:uuid:39b48755-aa00-43d5-a383-114211739d00",
      "resource": {
        "resourceType": "Observation",
        "id": "urn:uuid:39b48755-aa00-43d5-a383-114211739d00",
        "meta": {
          "profile": [
            "http://hl7.org/fhir/us/vrdr/StructureDefinition/VRDR-Examiner-Contacted"
          ]
        },
        "status": "final",
        "code": {
          "coding": [
            {
              "system": "http://loinc.org",
              "code": "74497-9",
              "display": "Medical examiner or coroner was contacted"
            }
          ]
        },
        "subject": {
          "reference": "urn:uuid:69a43dc6-5a4f-4570-966e-3e6a300997f8"
        },
        "valueBoolean": false
      }
    },
    {
      "fullUrl": "urn:uuid:42bfb03f-722f-4e41-8639-759b9b584cce",
      "resource": {
        "resourceType": "Observation",
        "id": "urn:uuid:42bfb03f-722f-4e41-8639-759b9b584cce",
        "meta": {
          "profile": [
            "http://hl7.org/fhir/us/vrdr/StructureDefinition/VRDR-Tobacco-Use-Contributed-To-Death"
          ]
        },
        "status": "final",
        "code": {
          "coding": [
            {
              "system": "http://loinc.org",
              "code": "69443-0",
              "display": "Did tobacco use contribute to death"
            }
          ]
        },
        "subject": {
          "reference": "urn:uuid:69a43dc6-5a4f-4570-966e-3e6a300997f8"
        },
        "valueCodeableConcept": {
          "coding": [
            {
              "system": "http://hl7.org/fhir/ValueSet/v2-0532",
              "code": "Y",
              "display": "Yes"
            }
          ]
        }
      }
    },
    {
      "fullUrl": "urn:uuid:a90d1339-2e7f-43cc-a72f-36551accfd4e",
      "resource": {
        "resourceType": "Location",
        "id": "urn:uuid:a90d1339-2e7f-43cc-a72f-36551accfd4e",
        "meta": {
          "profile": [
            "http://hl7.org/fhir/us/vrdr/StructureDefinition/VRDR-Injury-Location"
          ]
        },
        "name": "Example Injury Location Name",
        "description": "Example Injury Location Description",
        "address": {
          "line": [
            "781 Example Street",
            "Line 2"
          ],
          "city": "Bedford",
          "district": "Middlesex",
          "state": "Massachusetts",
          "postalCode": "01730",
          "country": "United States"
        }
      }
    },
    {
      "fullUrl": "urn:uuid:e7ce72de-93e5-4a21-9dcd-820bdc1b7e68",
      "resource": {
        "resourceType": "Observation",
        "id": "urn:uuid:e7ce72de-93e5-4a21-9dcd-820bdc1b7e68",
        "meta": {
          "profile": [
            "http://hl7.org/fhir/us/vrdr/StructureDefinition/VRDR-Injury-Incident"
          ]
        },
        "status": "final",
        "code": {
          "coding": [
            {
              "system": "http://loinc.org",
              "code": "11374-6",
              "display": "Injury incident description"
            }
          ]
        },
        "subject": {
          "reference": "urn:uuid:69a43dc6-5a4f-4570-966e-3e6a300997f8"
        },
        "effectiveDateTime": "2018-02-19T16:48:06.498822-05:00"
      }
    },
    {
      "fullUrl": "urn:uuid:c7bf8488-9b3c-45a5-8da7-f283bb3acbd5",
      "resource": {
        "resourceType": "Location",
        "id": "urn:uuid:c7bf8488-9b3c-45a5-8da7-f283bb3acbd5",
        "meta": {
          "profile": [
            "http://hl7.org/fhir/us/vrdr/StructureDefinition/VRDR-Death-Location"
          ]
        },
        "name": "Example Death Location Name",
        "description": "Example Death Location Description",
        "address": {
          "line": [
            "671 Example Street",
            "Line 2"
          ],
          "city": "Bedford",
          "district": "Middlesex",
          "state": "Massachusetts",
          "postalCode": "01730",
          "country": "United States"
        }
      }
    },
    {
      "fullUrl": "urn:uuid:8a09fc7c-7e55-44f2-864c-06d3f1f49892",
      "resource": {
        "resourceType": "Observation",
        "id": "urn:uuid:8a09fc7c-7e55-44f2-864c-06d3f1f49892",
        "meta": {
          "profile": [
            "http://hl7.org/fhir/us/vrdr/StructureDefinition/VRDR-Death-Date"
          ]
        },
        "status": "final",
        "code": {
          "coding": [
            {
              "system": "http://loinc.org",
              "code": "81956-5",
              "display": "Date and time of death"
            }
          ]
        },
        "subject": {
          "reference": "urn:uuid:69a43dc6-5a4f-4570-966e-3e6a300997f8"
        },
        "effectiveDateTime": "2018-02-19T16:48:06.498822-05:00",
        "performer": [
          {
            "reference": "urn:uuid:d0f7c94d-b3bb-472f-9daf-857113dd783f"
          }
        ],
        "component": [
          {
            "code": {
              "coding": [
                {
                  "system": "http://loinc.org",
                  "code": "80616-6",
                  "display": "Date and time pronounced dead"
                }
              ]
            },
            "valueDateTime": "2018-02-20T16:48:06.498822-05:00"
          }
        ]
      }
    }
  ]
}


