{
  "resourceType": "Bundle",
  "id": "urn:uuid:3f52e49d-b92d-4c68-bf46-dd10a8ba4fff",
  "meta": {
    "profile": [
      "http://www.hl7.org/fhir/us/vrdr/StructureDefinition/VRDR-Death-Certificate-Document"
    ]
  },
  "identifier": {
    "value": "42"
  },
  "type": "document",
  "entry": [
    {
      "fullUrl": "urn:uuid:7e84a26a-6235-4d81-b865-f4463b3821ff",
      "resource": {
        "resourceType": "Composition",
        "id": "urn:uuid:7e84a26a-6235-4d81-b865-f4463b3821ff",
        "meta": {
          "profile": [
            "http://www.hl7.org/fhir/us/vrdr/StructureDefinition/VRDR-Death-Certificate"
          ]
        },
        "identifier": {
          "value": "1"
        },
        "status": "final",
        "type": {
          "coding": [
            {
              "system": "http://loinc.org",
              "code": "64297-5",
              "display": "Death certificate"
            }
          ]
        },
        "subject": {
          "reference": "urn:uuid:5c77bf6f-9145-40c4-a4ce-7f3b7af6080d"
        },
        "date": "2019-01-20T16:47:04.498822-05:00",
        "attester": [
          {
            "mode": [
              "legal"
            ],
            "time": "2019-01-29T16:48:06.498822-05:00",
            "party": {
              "reference": "urn:uuid:edfe4ecf-f225-4b56-be07-3197a7da84bf"
            }
          }
        ],
        "event": [
          {
            "code": [
              {
                "coding": [
                  {
                    "system": "http://snomed.info/sct",
                    "code": "103693007",
                    "display": "Diagnostic procedure"
                  }
                ]
              }
            ],
            "detail": [
              {
                "reference": "urn:uuid:db33f83d-206e-4196-95f8-fc5182884c20"
              }
            ]
          }
        ],
        "section": [
          {
            "entry": [
              {
                "reference": "urn:uuid:5c77bf6f-9145-40c4-a4ce-7f3b7af6080d"
              },
              {
                "reference": "urn:uuid:edfe4ecf-f225-4b56-be07-3197a7da84bf"
              },
              {
                "reference": "urn:uuid:b44c9231-3282-41f9-9a59-d7663a656dc2"
              },
              {
                "reference": "urn:uuid:db33f83d-206e-4196-95f8-fc5182884c20"
              },
              {
                "reference": "urn:uuid:33e25be7-cbb2-4994-9780-5fa7a6b2b054"
              },
              {
                "reference": "urn:uuid:3d72fc7f-4cb2-4ccc-8119-bc6a1ec91a90"
              },
              {
                "reference": "urn:uuid:4b7553ca-b568-4b94-a52a-126636986a48"
              },
              {
                "reference": "urn:uuid:c829fdf6-7fff-459d-ba60-bfdbb074d9ca"
              },
              {
                "reference": "urn:uuid:5880185b-1f8e-408f-9df9-7ab4b9492995"
              },
              {
                "reference": "urn:uuid:dc4f7b2f-3cd9-45f4-a46f-2cf47e5cea83"
              },
              {
                "reference": "urn:uuid:ed967388-1416-42b0-926a-52d6f5215e94"
              },
              {
                "reference": "urn:uuid:f425b727-a77e-422d-a6f0-6d9bb6fd9cfe"
              },
              {
                "reference": "urn:uuid:814fcd50-6065-42a5-8898-7753dece85f0"
              },
              {
                "reference": "urn:uuid:d01cf6fd-b36b-4e44-9ba6-a140bf3000e8"
              },
              {
                "reference": "urn:uuid:6fcf39d9-4c13-4210-acb7-8bd5e4b3a418"
              },
              {
                "reference": "urn:uuid:6d77bdb6-61d2-4e63-afb3-10d27b403287"
              },
              {
                "reference": "urn:uuid:02ce7d7f-bfba-4de5-a050-07a214f9371f"
              },
              {
                "reference": "urn:uuid:c371bef2-e1af-46df-9901-040a1a4198dd"
              },
              {
                "reference": "urn:uuid:7c5e2b73-34e1-49b1-a29e-2905310b64c5"
              },
              {
                "reference": "urn:uuid:756d11de-19fb-409b-9fcb-7f11f9a74858"
              },
              {
                "reference": "urn:uuid:0a7eb058-6d5d-4fde-8b10-10ec4d9d0092"
              },
              {
                "reference": "urn:uuid:61a8b113-be25-4dd6-99b5-cefecd18cae1"
              },
              {
                "reference": "urn:uuid:24ed8a4a-d1ea-429d-91ba-42ec9b603cdf"
              },
              {
                "reference": "urn:uuid:7324bf29-c1b3-43fd-819f-15b44bbf9af8"
              },
              {
                "reference": "urn:uuid:386ed0a8-f25d-4ead-aa0e-f90a7ed14677"
              },
              {
                "reference": "urn:uuid:7b8fe475-941b-462b-80f0-b11b2d725ced"
              },
              {
                "reference": "urn:uuid:a966f1a8-39ac-43e8-b5b4-0d6289b7b516"
              },
              {
                "reference": "urn:uuid:9ff473ea-0b26-441e-9198-bcc8924e9bae"
              },
              {
                "reference": "urn:uuid:7114ee7f-4600-47e0-b040-4427b268e58f"
              },
              {
                "reference": "urn:uuid:cf3fcd78-0cf4-44a0-b030-2110cc6f5d9d"
              },
              {
                "reference": "urn:uuid:35634f90-97f7-4e20-b658-5e7bec7b694c"
              },
              {
                "reference": "urn:uuid:fb2e6384-0b29-45f0-b727-f66052db9a73"
              }
            ]
          }
        ]
      }
    },
    {
      "fullUrl": "urn:uuid:5c77bf6f-9145-40c4-a4ce-7f3b7af6080d",
      "resource": {
        "resourceType": "Patient",
        "id": "urn:uuid:5c77bf6f-9145-40c4-a4ce-7f3b7af6080d",
        "meta": {
          "profile": [
            "http://www.hl7.org/fhir/us/vrdr/StructureDefinition/VRDR-Decedent"
          ]
        },
        "extension": [
          {
            "url": "http://hl7.org/fhir/us/core/StructureDefinition/us-core-birthsex",
            "valueCodeableConcept": {
              "coding": [
                {
                  "system": "http://hl7.org/fhir/us/core/ValueSet/us-core-birthsex",
                  "code": "M",
                  "display": "Male"
                }
              ]
            }
          },
          {
            "extension": [
              {
                "url": "text",
                "valueString": "Hispanic or Latino"
              },
              {
                "url": "ombCategory",
                "valueCoding": {
                  "system": "urn:oid:2.16.840.1.113883.6.238",
                  "code": "2135-2",
                  "display": "Hispanic or Latino"
                }
              },
              {
                "url": "text",
                "valueString": "Puerto Rican"
              },
              {
                "url": "detailed",
                "valueCoding": {
                  "system": "urn:oid:2.16.840.1.113883.6.238",
                  "code": "2180-8",
                  "display": "Puerto Rican"
                }
              }
            ],
            "url": "http://hl7.org/fhir/us/core/StructureDefinition/us-core-ethnicity"
          },
          {
            "extension": [
              {
                "url": "text",
                "valueString": "White"
              },
              {
                "url": "ombCategory",
                "valueCoding": {
                  "system": "urn:oid:2.16.840.1.113883.6.238",
                  "code": "2106-3",
                  "display": "White"
                }
              },
              {
                "url": "text",
                "valueString": "Native Hawaiian or Other Pacific Islander"
              },
              {
                "url": "ombCategory",
                "valueCoding": {
                  "system": "urn:oid:2.16.840.1.113883.6.238",
                  "code": "2076-8",
                  "display": "Native Hawaiian or Other Pacific Islander"
                }
              }
            ],
            "url": "http://hl7.org/fhir/us/core/StructureDefinition/us-core-race"
          },
          {
            "url": "http://www.hl7.org/fhir/StructureDefinition/birthPlace",
            "valueAddress": {
              "line": [
                "1011 Example Street",
                "Line 2"
              ],
              "city": "Bedford",
              "district": "Middlesex",
              "state": "Massachusetts",
              "postalCode": "01730",
              "country": "United States"
            }
          }
        ],
        "identifier": [
          {
            "type": {
              "coding": [
                {
                  "code": "BR",
                  "display": "Social Beneficiary Identifier"
                }
              ]
            },
            "system": "http://hl7.org/fhir/sid/us-ssn",
            "value": "123456789"
          }
        ],
        "name": [
          {
            "use": "official",
            "family": "Last",
            "given": [
              "Example",
              "Something",
              "Middle"
            ],
            "suffix": [
              "Jr."
            ]
          }
        ],
        "gender": "male",
        "birthDate": "1940-02-19T16:48:06.498822-05:00",
        "address": [
          {
            "line": [
              "101 Example Street",
              "Line 2"
            ],
            "city": "Bedford",
            "district": "Middlesex",
            "state": "Massachusetts",
            "postalCode": "01730",
            "country": "United States"
          }
        ],
        "maritalStatus": {
          "coding": [
            {
              "system": "http://hl7.org/fhir/v3/MaritalStatus",
              "code": "S",
              "display": "Never Married"
            }
          ]
        }
      }
    },
    {
      "fullUrl": "urn:uuid:edfe4ecf-f225-4b56-be07-3197a7da84bf",
      "resource": {
        "resourceType": "Practitioner",
        "id": "urn:uuid:edfe4ecf-f225-4b56-be07-3197a7da84bf",
        "meta": {
          "profile": [
            "http://www.hl7.org/fhir/us/vrdr/StructureDefinition/VRDR-Certifier"
          ]
        },
        "name": [
          {
            "use": "official",
            "family": "Last",
            "given": [
              "Doctor",
              "Middle"
            ],
            "suffix": [
              "Jr."
            ]
          }
        ],
        "address": [
          {
            "line": [
              "11 Example Street",
              "Line 2"
            ],
            "city": "Bedford",
            "district": "Middlesex",
            "state": "Massachusetts",
            "postalCode": "01730",
            "country": "United States"
          }
        ],
        "qualification": [
          {
            "code": {
              "coding": [
                {
                  "system": "http://hl7.org/fhir/v2/0360/2.7",
                  "code": "MD",
                  "display": "Doctor of Medicine"
                }
              ]
            }
          }
        ]
      }
    },
    {
      "fullUrl": "urn:uuid:b44c9231-3282-41f9-9a59-d7663a656dc2",
      "resource": {
        "resourceType": "Practitioner",
        "id": "urn:uuid:b44c9231-3282-41f9-9a59-d7663a656dc2",
        "meta": {
          "profile": [
            "http://www.hl7.org/fhir/us/vrdr/StructureDefinition/VRDR-Mortician"
          ]
        },
        "name": [
          {
            "use": "official",
            "family": "Last",
            "given": [
              "FD",
              "Middle"
            ],
            "suffix": [
              "Jr."
            ]
          }
        ],
        "qualification": [
          {
            "identifier": [
              {
                "value": "9876543210"
              }
            ]
          }
        ]
      }
    },
    {
      "fullUrl": "urn:uuid:db33f83d-206e-4196-95f8-fc5182884c20",
      "resource": {
        "resourceType": "Procedure",
        "id": "urn:uuid:db33f83d-206e-4196-95f8-fc5182884c20",
        "meta": {
          "profile": [
            "http://www.hl7.org/fhir/us/vrdr/StructureDefinition/VRDR-Death-Certification"
          ]
        },
        "status": "completed",
        "category": {
          "coding": [
            {
              "system": "http://snomed.info/sct",
              "code": "103693007",
              "display": "Diagnostic procedure"
            }
          ]
        },
        "code": {
          "coding": [
            {
              "system": "http://snomed.info/sct",
              "code": "308646001",
              "display": "Death certification"
            }
          ]
        },
        "performedString": "2019-01-29T16:48:06.498822-05:00",
        "performer": [
          {
            "role": {
              "coding": [
                {
                  "system": "http://snomed.info/sct",
                  "code": "309343006",
                  "display": "Physician"
                }
              ]
            },
            "actor": {
              "reference": "urn:uuid:edfe4ecf-f225-4b56-be07-3197a7da84bf"
            }
          }
        ]
      }
    },
    {
      "fullUrl": "urn:uuid:33e25be7-cbb2-4994-9780-5fa7a6b2b054",
      "resource": {
        "resourceType": "Organization",
        "id": "urn:uuid:33e25be7-cbb2-4994-9780-5fa7a6b2b054",
        "meta": {
          "profile": [
            "http://www.hl7.org/fhir/us/vrdr/StructureDefinition/VRDR-Interested-Party"
          ]
        },
        "identifier": [
          {
            "value": "1010101"
          }
        ],
        "active": true,
        "type": [
          {
            "coding": [
              {
                "system": "http://terminology.hl7.org/CodeSystem/organization-type",
                "code": "prov",
                "display": "Healthcare Provider"
              }
            ]
          }
        ],
        "name": "Example Hospital",
        "address": [
          {
            "line": [
              "10 Example Street",
              "Line 2"
            ],
            "city": "Bedford",
            "district": "Middlesex",
            "state": "Massachusetts",
            "postalCode": "01730",
            "country": "United States"
          }
        ]
      }
    },
    {
      "fullUrl": "urn:uuid:3d72fc7f-4cb2-4ccc-8119-bc6a1ec91a90",
      "resource": {
        "resourceType": "Organization",
        "id": "urn:uuid:3d72fc7f-4cb2-4ccc-8119-bc6a1ec91a90",
        "meta": {
          "profile": [
            "http://www.hl7.org/fhir/us/vrdr/StructureDefinition/VRDR-Funeral-Home"
          ]
        },
        "type": [
          {
            "coding": [
              {
                "code": "bus",
                "display": "Non-Healthcare Business or Corporation"
              }
            ]
          }
        ],
        "name": "Smith Funeral Home",
        "address": [
          {
            "line": [
              "1011010 Example Street",
              "Line 2"
            ],
            "city": "Bedford",
            "district": "Middlesex",
            "state": "Massachusetts",
            "postalCode": "01730",
            "country": "United States"
          }
        ]
      }
    },
    {
      "fullUrl": "urn:uuid:4b7553ca-b568-4b94-a52a-126636986a48",
      "resource": {
        "resourceType": "PractitionerRole",
        "id": "urn:uuid:4b7553ca-b568-4b94-a52a-126636986a48",
        "meta": {
          "profile": [
            "http://www.hl7.org/fhir/us/vrdr/StructureDefinition/VRDR-Funeral-Home-Director"
          ]
        },
        "practitioner": {
          "reference": "urn:uuid:b44c9231-3282-41f9-9a59-d7663a656dc2"
        },
        "organization": {
          "reference": "urn:uuid:3d72fc7f-4cb2-4ccc-8119-bc6a1ec91a90"
        }
      }
    },
    {
      "fullUrl": "urn:uuid:c829fdf6-7fff-459d-ba60-bfdbb074d9ca",
      "resource": {
        "resourceType": "List",
        "id": "urn:uuid:c829fdf6-7fff-459d-ba60-bfdbb074d9ca",
        "meta": {
          "profile": [
            "http://www.hl7.org/fhir/us/vrdr/StructureDefinition/VRDR-Cause-of-Death-Pathway"
          ]
        },
        "status": "current",
        "mode": "snapshot",
        "source": {
          "reference": "urn:uuid:edfe4ecf-f225-4b56-be07-3197a7da84bf"
        },
        "orderedBy": {
          "coding": [
            {
              "code": "priority"
            }
          ]
        },
        "entry": [
          {
            "item": {
              "reference": "urn:uuid:f425b727-a77e-422d-a6f0-6d9bb6fd9cfe"
            }
          },
          {
            "item": {
              "reference": "urn:uuid:814fcd50-6065-42a5-8898-7753dece85f0"
            }
          },
          {
            "item": {
              "reference": "urn:uuid:d01cf6fd-b36b-4e44-9ba6-a140bf3000e8"
            }
          },
          {
            "item": {
              "reference": "urn:uuid:6fcf39d9-4c13-4210-acb7-8bd5e4b3a418"
            }
          }
        ]
      }
    },
    {
      "fullUrl": "urn:uuid:5880185b-1f8e-408f-9df9-7ab4b9492995",
      "resource": {
        "resourceType": "Location",
        "id": "urn:uuid:5880185b-1f8e-408f-9df9-7ab4b9492995",
        "meta": {
          "profile": [
            "http://www.hl7.org/fhir/us/vrdr/StructureDefinition/VRDR-Disposition-Location"
          ]
        },
        "name": "Bedford Cemetery",
        "address": {
          "line": [
            "603 Example Street",
            "Line 2"
          ],
          "city": "Bedford",
          "district": "Middlesex",
          "state": "Massachusetts",
          "postalCode": "01730",
          "country": "United States"
        }
      }
    },
    {
      "fullUrl": "urn:uuid:dc4f7b2f-3cd9-45f4-a46f-2cf47e5cea83",
      "resource": {
        "resourceType": "Observation",
        "id": "urn:uuid:dc4f7b2f-3cd9-45f4-a46f-2cf47e5cea83",
        "meta": {
          "profile": [
            "http://www.hl7.org/fhir/us/vrdr/StructureDefinition/VRDR-Manner-of-Death"
          ]
        },
        "status": "final",
        "code": {
          "coding": [
            {
              "system": "http://loinc.org",
              "code": "69449-7",
              "display": "Manner of death"
            }
          ]
        },
        "subject": {
          "reference": "urn:uuid:5c77bf6f-9145-40c4-a4ce-7f3b7af6080d"
        },
        "performer": [
          {
            "reference": "urn:uuid:edfe4ecf-f225-4b56-be07-3197a7da84bf"
          }
        ],
        "valueCodeableConcept": {
          "coding": [
            {
              "code": "7878000",
              "display": "Accident"
            }
          ]
        }
      }
    },
    {
      "fullUrl": "urn:uuid:ed967388-1416-42b0-926a-52d6f5215e94",
      "resource": {
        "resourceType": "Condition",
        "id": "urn:uuid:ed967388-1416-42b0-926a-52d6f5215e94",
        "meta": {
          "profile": [
            "http://www.hl7.org/fhir/us/vrdr/StructureDefinition/VRDR-Condition-Contributing-To-Death"
          ]
        },
        "code": {
          "text": "Example Contributing Conditions"
        },
        "subject": {
          "reference": "urn:uuid:5c77bf6f-9145-40c4-a4ce-7f3b7af6080d"
        }
      }
    },
    {
      "fullUrl": "urn:uuid:f425b727-a77e-422d-a6f0-6d9bb6fd9cfe",
      "resource": {
        "resourceType": "Condition",
        "id": "urn:uuid:f425b727-a77e-422d-a6f0-6d9bb6fd9cfe",
        "meta": {
          "profile": [
            "http://www.hl7.org/fhir/us/vrdr/StructureDefinition/VRDR-Cause-Of-Death-Condition"
          ]
        },
        "code": {
          "coding": [
            {
              "system": "http://hl7.org/fhir/sid/icd-10",
              "code": "I21.0",
              "display": "Acute transmural myocardial infarction of anterior wall"
            }
          ],
          "text": "Rupture of myocardium"
        },
        "subject": {
          "reference": "urn:uuid:5c77bf6f-9145-40c4-a4ce-7f3b7af6080d"
        },
        "onsetString": "minutes",
        "asserter": {
          "reference": "urn:uuid:edfe4ecf-f225-4b56-be07-3197a7da84bf"
        }
      }
    },
    {
      "fullUrl": "urn:uuid:814fcd50-6065-42a5-8898-7753dece85f0",
      "resource": {
        "resourceType": "Condition",
        "id": "urn:uuid:814fcd50-6065-42a5-8898-7753dece85f0",
        "meta": {
          "profile": [
            "http://www.hl7.org/fhir/us/vrdr/StructureDefinition/VRDR-Cause-Of-Death-Condition"
          ]
        },
        "code": {
          "coding": [
            {
              "system": "http://hl7.org/fhir/sid/icd-10",
              "code": "I21.9",
              "display": "Acute myocardial infarction, unspecified"
            }
          ],
          "text": "Acute myocardial infarction"
        },
        "subject": {
          "reference": "urn:uuid:5c77bf6f-9145-40c4-a4ce-7f3b7af6080d"
        },
        "onsetString": "6 days",
        "asserter": {
          "reference": "urn:uuid:edfe4ecf-f225-4b56-be07-3197a7da84bf"
        }
      }
    },
    {
      "fullUrl": "urn:uuid:d01cf6fd-b36b-4e44-9ba6-a140bf3000e8",
      "resource": {
        "resourceType": "Condition",
        "id": "urn:uuid:d01cf6fd-b36b-4e44-9ba6-a140bf3000e8",
        "meta": {
          "profile": [
            "http://www.hl7.org/fhir/us/vrdr/StructureDefinition/VRDR-Cause-Of-Death-Condition"
          ]
        },
        "code": {
          "text": "Coronary artery thrombosis"
        },
        "subject": {
          "reference": "urn:uuid:5c77bf6f-9145-40c4-a4ce-7f3b7af6080d"
        },
        "onsetString": "5 years",
        "asserter": {
          "reference": "urn:uuid:edfe4ecf-f225-4b56-be07-3197a7da84bf"
        }
      }
    },
    {
      "fullUrl": "urn:uuid:6fcf39d9-4c13-4210-acb7-8bd5e4b3a418",
      "resource": {
        "resourceType": "Condition",
        "id": "urn:uuid:6fcf39d9-4c13-4210-acb7-8bd5e4b3a418",
        "meta": {
          "profile": [
            "http://www.hl7.org/fhir/us/vrdr/StructureDefinition/VRDR-Cause-Of-Death-Condition"
          ]
        },
        "code": {
          "text": "Atherosclerotic coronary artery disease"
        },
        "subject": {
          "reference": "urn:uuid:5c77bf6f-9145-40c4-a4ce-7f3b7af6080d"
        },
        "onsetString": "7 years",
        "asserter": {
          "reference": "urn:uuid:edfe4ecf-f225-4b56-be07-3197a7da84bf"
        }
      }
    },
    {
      "fullUrl": "urn:uuid:6d77bdb6-61d2-4e63-afb3-10d27b403287",
      "resource": {
        "resourceType": "RelatedPerson",
        "id": "urn:uuid:6d77bdb6-61d2-4e63-afb3-10d27b403287",
        "meta": {
          "profile": [
            "http://www.hl7.org/fhir/us/vrdr/StructureDefinition/VRDR-Decedent-Father"
          ]
        },
        "patient": {
          "reference": "urn:uuid:5c77bf6f-9145-40c4-a4ce-7f3b7af6080d"
        },
        "relationship": {
          "coding": [
            {
              "code": "FTH"
            }
          ]
        },
        "name": [
          {
            "family": "Last",
            "given": [
              "Father",
              "Middle"
            ],
            "suffix": [
              "Sr."
            ]
          }
        ]
      }
    },
    {
      "fullUrl": "urn:uuid:02ce7d7f-bfba-4de5-a050-07a214f9371f",
      "resource": {
        "resourceType": "RelatedPerson",
        "id": "urn:uuid:02ce7d7f-bfba-4de5-a050-07a214f9371f",
        "meta": {
          "profile": [
            "http://www.hl7.org/fhir/us/vrdr/StructureDefinition/VRDR-Decedent-Mother"
          ]
        },
        "patient": {
          "reference": "urn:uuid:5c77bf6f-9145-40c4-a4ce-7f3b7af6080d"
        },
        "relationship": {
          "coding": [
            {
              "code": "MTH"
            }
          ]
        },
        "name": [
          {
            "family": "Maiden",
            "given": [
              "Mother",
              "Middle"
            ],
            "suffix": [
              "Dr."
            ]
          }
        ]
      }
    },
    {
      "fullUrl": "urn:uuid:c371bef2-e1af-46df-9901-040a1a4198dd",
      "resource": {
        "resourceType": "RelatedPerson",
        "id": "urn:uuid:c371bef2-e1af-46df-9901-040a1a4198dd",
        "meta": {
          "profile": [
            "http://www.hl7.org/fhir/us/vrdr/StructureDefinition/VRDR-Decedent-Spouse"
          ]
        },
        "patient": {
          "reference": "urn:uuid:5c77bf6f-9145-40c4-a4ce-7f3b7af6080d"
        },
        "relationship": {
          "coding": [
            {
              "code": "SPS"
            }
          ]
        },
        "name": [
          {
            "family": "Last",
            "given": [
              "Spouse",
              "Middle"
            ],
            "suffix": [
              "Ph.D."
            ]
          }
        ]
      }
    },
    {
      "fullUrl": "urn:uuid:7c5e2b73-34e1-49b1-a29e-2905310b64c5",
      "resource": {
        "resourceType": "Observation",
        "id": "urn:uuid:7c5e2b73-34e1-49b1-a29e-2905310b64c5",
        "meta": {
          "profile": [
            "http://www.hl7.org/fhir/us/vrdr/StructureDefinition/VRDR-Decedent-Education-Level"
          ]
        },
        "status": "final",
        "code": {
          "coding": [
            {
              "system": "http://loinc.org",
              "code": "80913-7",
              "display": "Highest level of education"
            }
          ]
        },
        "subject": {
          "reference": "urn:uuid:5c77bf6f-9145-40c4-a4ce-7f3b7af6080d"
        },
        "valueCodeableConcept": {
          "coding": [
            {
              "system": "http://hl7.org/fhir/v3/EducationLevel",
              "code": "BD",
              "display": "College or baccalaureate degree complete"
            }
          ]
        }
      }
    },
    {
      "fullUrl": "urn:uuid:756d11de-19fb-409b-9fcb-7f11f9a74858",
      "resource": {
        "resourceType": "Observation",
        "id": "urn:uuid:756d11de-19fb-409b-9fcb-7f11f9a74858",
        "meta": {
          "profile": [
            "http://www.hl7.org/fhir/us/vrdr/StructureDefinition/VRDR-Birth-Record-Identifier"
          ]
        },
        "status": "final",
        "code": {
          "coding": [
            {
              "code": "BR"
            }
          ]
        },
        "subject": {
          "reference": "urn:uuid:5c77bf6f-9145-40c4-a4ce-7f3b7af6080d"
        },
        "valueString": "4242123"
      }
    },
    {
      "fullUrl": "urn:uuid:0a7eb058-6d5d-4fde-8b10-10ec4d9d0092",
      "resource": {
        "resourceType": "Observation",
        "id": "urn:uuid:0a7eb058-6d5d-4fde-8b10-10ec4d9d0092",
        "meta": {
          "profile": [
            "http://www.hl7.org/fhir/us/vrdr/StructureDefinition/VRDR-Decedent-Employment-History"
          ]
        },
        "status": "final",
        "code": {
          "coding": [
            {
              "system": "http://loinc.org",
              "code": "74165-2",
              "display": "History of employment status"
            }
          ]
        },
        "subject": {
          "reference": "urn:uuid:5c77bf6f-9145-40c4-a4ce-7f3b7af6080d"
        },
        "component": [
          {
            "code": {
              "coding": [
                {
                  "system": "http://loinc.org",
                  "code": "21847-9",
                  "display": "Usual occupation"
                }
              ]
            },
            "valueCodeableConcept": {
              "coding": [
                {
                  "system": "http://www.hl7.org/fhir/ValueSet/Usual-occupation",
                  "code": "7280",
                  "display": "Accounting, tax preparation, bookkeeping, and payroll services"
                }
              ]
            }
          },
          {
            "code": {
              "coding": [
                {
                  "system": "http://loinc.org",
                  "code": "21844-6",
                  "display": "Usual industry"
                }
              ]
            },
            "valueCodeableConcept": {
              "coding": [
                {
                  "system": "http://www.hl7.org/fhir/ValueSet/industry-cdc-census-2010",
                  "code": "1320",
                  "display": "Aerospace engineers"
                }
              ]
            }
          },
          {
            "code": {
              "coding": [
                {
                  "system": "http://loinc.org",
                  "code": "55280-2",
                  "display": "Military service"
                }
              ]
            },
            "valueCodeableConcept": {
              "coding": [
                {
                  "system": "http://www.hl7.org/fhir/ValueSet/v2-0532",
                  "code": "Y",
                  "display": "Yes"
                }
              ]
            }
          }
        ]
      }
    },
    {
      "fullUrl": "urn:uuid:61a8b113-be25-4dd6-99b5-cefecd18cae1",
      "resource": {
        "resourceType": "Observation",
        "id": "urn:uuid:61a8b113-be25-4dd6-99b5-cefecd18cae1",
        "meta": {
          "profile": [
            "http://www.hl7.org/fhir/us/vrdr/StructureDefinition/VRDR-Decedent-Disposition-Method"
          ]
        },
        "extension": [
          {
            "url": "http://www.hl7.org/fhir/us/vrdr/StructureDefinition/VRDR-Disposition-Location",
            "valueReference": {
              "reference": "urn:uuid:5880185b-1f8e-408f-9df9-7ab4b9492995"
            }
          }
        ],
        "status": "final",
        "code": {
          "coding": [
            {
              "system": "http://loinc.org",
              "code": "80905-3",
              "display": "Body disposition method"
            }
          ]
        },
        "subject": {
          "reference": "urn:uuid:5c77bf6f-9145-40c4-a4ce-7f3b7af6080d"
        },
        "performer": [
          {
            "reference": "urn:uuid:b44c9231-3282-41f9-9a59-d7663a656dc2"
          }
        ],
        "valueCodeableConcept": {
          "coding": [
            {
              "system": "http://snomed.info/sct",
              "code": "449971000124106",
              "display": "Burial"
            }
          ]
        }
      }
    },
    {
      "fullUrl": "urn:uuid:24ed8a4a-d1ea-429d-91ba-42ec9b603cdf",
      "resource": {
        "resourceType": "Observation",
        "id": "urn:uuid:24ed8a4a-d1ea-429d-91ba-42ec9b603cdf",
        "meta": {
          "profile": [
            "http://www.hl7.org/fhir/us/vrdr/StructureDefinition/VRDR-Autopsy-Performed-Indicator"
          ]
        },
        "status": "final",
        "code": {
          "coding": [
            {
              "system": "http://loinc.org",
              "code": "85699-7",
              "display": "Autopsy was performed"
            }
          ]
        },
        "subject": {
          "reference": "urn:uuid:5c77bf6f-9145-40c4-a4ce-7f3b7af6080d"
        },
        "valueCodeableConcept": {
          "coding": [
            {
              "system": "http://www.hl7.org/fhir/ValueSet/v2-0532",
              "code": "Y",
              "display": "Yes"
            }
          ]
        },
        "component": [
          {
            "code": {
              "coding": [
                {
                  "system": "http://loinc.org",
                  "code": "69436-4",
                  "display": "Autopsy results available"
                }
              ]
            },
            "valueCodeableConcept": {
              "coding": [
                {
                  "system": "http://www.hl7.org/fhir/ValueSet/v2-0532",
                  "code": "Y",
                  "display": "Yes"
                }
              ]
            }
          }
        ]
      }
    },
    {
      "fullUrl": "urn:uuid:7324bf29-c1b3-43fd-819f-15b44bbf9af8",
      "resource": {
        "resourceType": "Observation",
        "id": "urn:uuid:7324bf29-c1b3-43fd-819f-15b44bbf9af8",
        "meta": {
          "profile": [
            "http://www.hl7.org/fhir/us/vrdr/StructureDefinition/VRDR-Decedent-Age"
          ]
        },
        "status": "final",
        "code": {
          "coding": [
            {
              "system": "http://loinc.org",
              "code": "30525-0",
              "display": "Age"
            }
          ]
        },
        "subject": {
          "reference": "urn:uuid:5c77bf6f-9145-40c4-a4ce-7f3b7af6080d"
        },
        "valueQuantity": {
          "value": 100,
          "unit": "a"
        }
      }
    },
    {
      "fullUrl": "urn:uuid:386ed0a8-f25d-4ead-aa0e-f90a7ed14677",
      "resource": {
        "resourceType": "Observation",
        "id": "urn:uuid:386ed0a8-f25d-4ead-aa0e-f90a7ed14677",
        "meta": {
          "profile": [
            "http://www.hl7.org/fhir/us/vrdr/StructureDefinition/VRDR-Decedent-Pregnancy"
          ]
        },
        "status": "final",
        "code": {
          "coding": [
            {
              "system": "http://loinc.org",
              "code": "69442-2",
              "display": "Timing of recent pregnancy in relation to death"
            }
          ]
        },
        "subject": {
          "reference": "urn:uuid:5c77bf6f-9145-40c4-a4ce-7f3b7af6080d"
        },
        "valueCodeableConcept": {
          "coding": [
            {
              "system": "http://www.hl7.org/fhir/stu3/valueset-PregnancyStatusVS",
              "code": "PHC1260",
              "display": "Not pregnant within past year"
            }
          ]
        }
      }
    },
    {
      "fullUrl": "urn:uuid:7b8fe475-941b-462b-80f0-b11b2d725ced",
      "resource": {
        "resourceType": "Observation",
        "id": "urn:uuid:7b8fe475-941b-462b-80f0-b11b2d725ced",
        "meta": {
          "profile": [
            "http://www.hl7.org/fhir/us/vrdr/StructureDefinition/VRDR-Decedent-Transportation-Role"
          ]
        },
        "status": "final",
        "code": {
          "coding": [
            {
              "system": "http://loinc.org",
              "code": "69451-3",
              "display": "Transportation role of decedent"
            }
          ]
        },
        "subject": {
          "reference": "urn:uuid:5c77bf6f-9145-40c4-a4ce-7f3b7af6080d"
        },
        "valueCodeableConcept": {
          "coding": [
            {
              "system": "http://www.hl7.org/fhir/stu3/valueset-TransportationRelationships",
              "code": "example-code",
              "display": "Example Code"
            }
          ]
        }
      }
    },
    {
      "fullUrl": "urn:uuid:a966f1a8-39ac-43e8-b5b4-0d6289b7b516",
      "resource": {
        "resourceType": "Observation",
        "id": "urn:uuid:a966f1a8-39ac-43e8-b5b4-0d6289b7b516",
        "meta": {
          "profile": [
            "http://www.hl7.org/fhir/us/vrdr/StructureDefinition/VRDR-Examiner-Contacted"
          ]
        },
        "status": "final",
        "code": {
          "coding": [
            {
              "system": "http://loinc.org",
              "code": "74497-9",
              "display": "Medical examiner or coroner was contacted"
            }
          ]
        },
        "subject": {
          "reference": "urn:uuid:5c77bf6f-9145-40c4-a4ce-7f3b7af6080d"
        },
        "valueBoolean": false
      }
    },
    {
      "fullUrl": "urn:uuid:9ff473ea-0b26-441e-9198-bcc8924e9bae",
      "resource": {
        "resourceType": "Observation",
        "id": "urn:uuid:9ff473ea-0b26-441e-9198-bcc8924e9bae",
        "meta": {
          "profile": [
            "http://www.hl7.org/fhir/us/vrdr/StructureDefinition/VRDR-Tobacco-Use-Contributed-To-Death"
          ]
        },
        "status": "final",
        "code": {
          "coding": [
            {
              "system": "http://loinc.org",
              "code": "69443-0",
              "display": "Did tobacco use contribute to death"
            }
          ]
        },
        "subject": {
          "reference": "urn:uuid:5c77bf6f-9145-40c4-a4ce-7f3b7af6080d"
        },
        "valueCodeableConcept": {
          "coding": [
            {
              "system": "http://www.hl7.org/fhir/ValueSet/v2-0532",
              "code": "Y",
              "display": "Yes"
            }
          ]
        }
      }
    },
    {
      "fullUrl": "urn:uuid:7114ee7f-4600-47e0-b040-4427b268e58f",
      "resource": {
        "resourceType": "Location",
        "id": "urn:uuid:7114ee7f-4600-47e0-b040-4427b268e58f",
        "meta": {
          "profile": [
            "http://www.hl7.org/fhir/us/vrdr/StructureDefinition/VRDR-Injury-Location"
          ]
        },
        "name": "Example Injury Location Name",
        "description": "Example Injury Location Description",
        "address": {
          "line": [
            "781 Example Street",
            "Line 2"
          ],
          "city": "Bedford",
          "district": "Middlesex",
          "state": "Massachusetts",
          "postalCode": "01730",
          "country": "United States"
        }
      }
    },
    {
      "fullUrl": "urn:uuid:cf3fcd78-0cf4-44a0-b030-2110cc6f5d9d",
      "resource": {
        "resourceType": "Observation",
        "id": "urn:uuid:cf3fcd78-0cf4-44a0-b030-2110cc6f5d9d",
        "meta": {
          "profile": [
            "http://www.hl7.org/fhir/us/vrdr/StructureDefinition/VRDR-Injury-Incident"
          ]
        },
        "status": "final",
        "code": {
          "coding": [
            {
              "system": "http://loinc.org",
              "code": "11374-6",
              "display": "Injury incident description"
            }
          ]
        },
        "subject": {
          "reference": "urn:uuid:5c77bf6f-9145-40c4-a4ce-7f3b7af6080d"
        },
        "effectiveDateTime": "2018-02-19T16:48:06.498822-05:00"
      }
    },
    {
      "fullUrl": "urn:uuid:35634f90-97f7-4e20-b658-5e7bec7b694c",
      "resource": {
        "resourceType": "Location",
        "id": "urn:uuid:35634f90-97f7-4e20-b658-5e7bec7b694c",
        "meta": {
          "profile": [
            "http://www.hl7.org/fhir/us/vrdr/StructureDefinition/VRDR-Death-Location"
          ]
        },
        "name": "Example Death Location Name",
        "description": "Example Death Location Description",
        "address": {
          "line": [
            "671 Example Street",
            "Line 2"
          ],
          "city": "Bedford",
          "district": "Middlesex",
          "state": "Massachusetts",
          "postalCode": "01730",
          "country": "United States"
        }
      }
    },
    {
      "fullUrl": "urn:uuid:fb2e6384-0b29-45f0-b727-f66052db9a73",
      "resource": {
        "resourceType": "Observation",
        "id": "urn:uuid:fb2e6384-0b29-45f0-b727-f66052db9a73",
        "meta": {
          "profile": [
            "http://www.hl7.org/fhir/us/vrdr/StructureDefinition/VRDR-Death-Date"
          ]
        },
        "status": "final",
        "code": {
          "coding": [
            {
              "system": "http://loinc.org",
              "code": "81956-5",
              "display": "Date and time of death"
            }
          ]
        },
        "subject": {
          "reference": "urn:uuid:5c77bf6f-9145-40c4-a4ce-7f3b7af6080d"
        },
        "effectiveDateTime": "2018-02-19T16:48:06.498822-05:00",
        "performer": [
          {
            "reference": "urn:uuid:edfe4ecf-f225-4b56-be07-3197a7da84bf"
          }
        ],
        "component": [
          {
            "code": {
              "coding": [
                {
                  "system": "http://loinc.org",
                  "code": "80616-6",
                  "display": "Date and time pronounced dead"
                }
              ]
            },
            "valueDateTime": "2018-02-20T16:48:06.498822-05:00"
          }
        ]
      }
    }
  ]
}


