{
   "resourceType":"Bundle",
   "id":"urn:uuid:d2197255-48c8-47b2-ad19-381c71108728",
   "meta":{
      "profile":[
         "http://www.hl7.org/fhir/us/vrdr/StructureDefinition/VRDR-Death-Certificate-Document"
      ]
   },
   "identifier":{
      "value":"b7849468-710e-4d8b-9e25-49451b4c12ac"
   },
   "type":"document",
   "entry":[
      {
         "fullUrl":"urn:uuid:94f9187f-edb9-4065-9922-4cc555bc67aa",
         "resource":{
            "resourceType":"Composition",
            "id":"urn:uuid:94f9187f-edb9-4065-9922-4cc555bc67aa",
            "meta":{
               "profile":[
                  "http://www.hl7.org/fhir/us/vrdr/StructureDefinition/VRDR-Death-Certificate"
               ]
            },
            "identifier":{
               "value":"25e016fb-e93b-47a4-bc6a-293ae125e078"
            },
            "status":"final",
            "type":{
               "coding":[
                  {
                     "system":"http://loinc.org",
                     "code":"64297-5",
                     "display":"Death certificate"
                  }
               ]
            },
            "subject":{
               "reference":"urn:uuid:5be66000-e4aa-4e65-8822-645d60790f85"
            },
            "date":"2019-01-20T16:47:04.4988220-05:00",
            "attester":[
               {
                  "mode":[
                     "legal"
                  ],
                  "time":"2019-01-29T16:48:06.4988220-05:00",
                  "party":{
                     "reference":"urn:uuid:fa3f52d2-adc2-4317-81a9-5387e53d6d2d"
                  }
               }
            ],
            "event":[
               {
                  "code":[
                     {
                        "coding":[
                           {
                              "system":"http://snomed.info/sct",
                              "code":"103693007",
                              "display":"Diagnostic procedure"
                           }
                        ]
                     }
                  ],
                  "detail":[
                     {
                        "reference":"urn:uuid:b78f0c80-fe09-45b2-91cb-1df2d313ded4"
                     }
                  ]
               }
            ],
            "section":[
               {
                  "entry":[
                     {
                        "reference":"urn:uuid:5be66000-e4aa-4e65-8822-645d60790f85"
                     },
                     {
                        "reference":"urn:uuid:fa3f52d2-adc2-4317-81a9-5387e53d6d2d"
                     },
                     {
                        "reference":"urn:uuid:078fc264-e9fe-4117-b545-2b93a0611764"
                     },
                     {
                        "reference":"urn:uuid:b78f0c80-fe09-45b2-91cb-1df2d313ded4"
                     },
                     {
                        "reference":"urn:uuid:53ba043a-aa4e-419b-8eba-7f71e653270f"
                     },
                     {
                        "reference":"urn:uuid:d736dccd-12b2-486b-9b1e-0af34fd8de70"
                     },
                     {
                        "reference":"urn:uuid:293ceaf9-27e0-4dc3-9724-8fc749828276"
                     },
                     {
                        "reference":"urn:uuid:17fcc2f5-b33b-4521-8bce-0f61223036ce"
                     },
                     {
                        "reference":"urn:uuid:1df79086-a6f9-4c18-b12f-4231e932de0f"
                     },
                     {
                        "reference":"urn:uuid:92db4eb5-3c79-4fb3-b7ca-72d14edfd9d3"
                     },
                     {
                        "reference":"urn:uuid:0eb1507e-9f2a-4711-83e6-89fc0ca8bb03"
                     },
                     {
                        "reference":"urn:uuid:85763f11-5a28-41d6-9876-d6642ed48a3f"
                     },
                     {
                        "reference":"urn:uuid:a07591b8-fa9a-474a-b902-af38c3d5bff4"
                     },
                     {
                        "reference":"urn:uuid:58bbd7be-a67d-4fe8-9cff-5d01dc11b0cd"
                     },
                     {
                        "reference":"urn:uuid:819a0f20-a472-40c0-a7c0-7f8f32da1861"
                     },
                     {
                        "reference":"urn:uuid:9fe47bdf-2ddd-4a41-94a3-83cd80852ee8"
                     },
                     {
                        "reference":"urn:uuid:19794749-b044-4139-984b-9e96e645ee7c"
                     },
                     {
                        "reference":"urn:uuid:748da9d6-3b12-4b3e-ac08-7b326d0d3044"
                     },
                     {
                        "reference":"urn:uuid:a4d5b1f9-6c2d-486d-9b23-3f8ba14e8379"
                     },
                     {
                        "reference":"urn:uuid:9754c0de-8469-4d91-af0d-598fb9380a97"
                     },
                     {
                        "reference":"urn:uuid:481e7390-6ca7-40e8-91c7-dd1ec51addf0"
                     },
                     {
                        "reference":"urn:uuid:58b1cd2c-bc51-4868-8bcd-08747d3a44bc"
                     },
                     {
                        "reference":"urn:uuid:b6cf8c71-c627-4d20-acd2-56fb510f9ff5"
                     },
                     {
                        "reference":"urn:uuid:d2c368db-b27f-4dd2-ae0d-4d6f027fb505"
                     },
                     {
                        "reference":"urn:uuid:cab151ab-60f3-4239-a17d-b950dcc615fa"
                     },
                     {
                        "reference":"urn:uuid:00ad24fc-5ef3-4fdc-b9ba-042a3cf19db0"
                     },
                     {
                        "reference":"urn:uuid:39da41c4-948f-40f8-8f31-116897bbc347"
                     },
                     {
                        "reference":"urn:uuid:865b0456-63fe-4f9e-a7af-440b7b82ec13"
                     },
                     {
                        "reference":"urn:uuid:3e96f957-2070-4f0b-b4f4-c55bf7d96328"
                     },
                     {
                        "reference":"urn:uuid:6c501f48-640b-4c5c-887d-8a7e3b1c85ec"
                     },
                     {
                        "reference":"urn:uuid:545d2ded-e2ac-4c4c-ac77-282cb55511ed"
                     }
                  ]
               }
            ]
         }
      },
      {
         "fullUrl":"urn:uuid:5be66000-e4aa-4e65-8822-645d60790f85",
         "resource":{
            "resourceType":"Patient",
            "id":"urn:uuid:5be66000-e4aa-4e65-8822-645d60790f85",
            "meta":{
               "profile":[
                  "http://www.hl7.org/fhir/us/vrdr/StructureDefinition/VRDR-Decedent"
               ]
            },
            "extension":[
               {
                  "url":"http://hl7.org/fhir/us/core/StructureDefinition/us-core-birthsex",
                  "valueCodeableConcept":{
                     "coding":[
                        {
                           "system":"http://hl7.org/fhir/us/core/ValueSet/us-core-birthsex",
                           "code":"M",
                           "display":"Male"
                        }
                     ]
                  }
               },
               {
                  "extension":[
                     {
                        "url":"text",
                        "valueString":"Hispanic or Latino"
                     },
                     {
                        "url":"ombCategory",
                        "valueCoding":{
                           "system":"urn:oid:2.16.840.1.113883.6.238",
                           "code":"2135-2",
                           "display":"Hispanic or Latino"
                        }
                     },
                     {
                        "url":"text",
                        "valueString":"Puerto Rican"
                     },
                     {
                        "url":"detailed",
                        "valueCoding":{
                           "system":"urn:oid:2.16.840.1.113883.6.238",
                           "code":"2180-8",
                           "display":"Puerto Rican"
                        }
                     }
                  ],
                  "url":"http://hl7.org/fhir/us/core/StructureDefinition/us-core-ethnicity"
               },
               {
                  "extension":[
                     {
                        "url":"text",
                        "valueString":"White"
                     },
                     {
                        "url":"ombCategory",
                        "valueCoding":{
                           "system":"urn:oid:2.16.840.1.113883.6.238",
                           "code":"2106-3",
                           "display":"White"
                        }
                     },
                     {
                        "url":"text",
                        "valueString":"Native Hawaiian or Other Pacific Islander"
                     },
                     {
                        "url":"ombCategory",
                        "valueCoding":{
                           "system":"urn:oid:2.16.840.1.113883.6.238",
                           "code":"2076-8",
                           "display":"Native Hawaiian or Other Pacific Islander"
                        }
                     }
                  ],
                  "url":"http://hl7.org/fhir/us/core/StructureDefinition/us-core-race"
               },
               {
                  "url":"http://www.hl7.org/fhir/StructureDefinition/birthPlace",
                  "valueAddress":{
                     "line":[
                        "1011 Example Street",
                        "Line 2"
                     ],
                     "city":"Bedford",
                     "district":"Middlesex",
                     "state":"Massachusetts",
                     "postalCode":"01730",
                     "country":"United States"
                  }
               }
            ],
            "identifier":[
               {
                  "type":{
                     "coding":[
                        {
                           "code":"BR",
                           "display":"Social Beneficiary Identifier"
                        }
                     ]
                  },
                  "system":"http://hl7.org/fhir/sid/us-ssn",
                  "value":"123456789"
               }
            ],
            "name":[
               {
                  "use":"official",
                  "family":"Last",
                  "given":[
                     "Example",
                     "Something",
                     "Middle"
                  ],
                  "suffix":[
                     "Jr."
                  ]
               }
            ],
            "gender":"male",
            "birthDate":"1940-02-19T16:48:06.4988220-05:00",
            "address":[
               {
                  "line":[
                     "101 Example Street",
                     "Line 2"
                  ],
                  "city":"Bedford",
                  "district":"Middlesex",
                  "state":"Massachusetts",
                  "postalCode":"01730",
                  "country":"United States"
               }
            ],
            "maritalStatus":{
               "coding":[
                  {
                     "system":"http://hl7.org/fhir/v3/MaritalStatus",
                     "code":"S",
                     "display":"Never Married"
                  }
               ]
            }
         }
      },
      {
         "fullUrl":"urn:uuid:fa3f52d2-adc2-4317-81a9-5387e53d6d2d",
         "resource":{
            "resourceType":"Practitioner",
            "id":"urn:uuid:fa3f52d2-adc2-4317-81a9-5387e53d6d2d",
            "meta":{
               "profile":[
                  "http://www.hl7.org/fhir/us/vrdr/StructureDefinition/VRDR-Certifier"
               ]
            },
            "name":[
               {
                  "use":"official",
                  "family":"Last",
                  "given":[
                     "Doctor",
                     "Middle"
                  ],
                  "suffix":[
                     "Jr."
                  ]
               }
            ],
            "address":[
               {
                  "line":[
                     "11 Example Street",
                     "Line 2"
                  ],
                  "city":"Bedford",
                  "district":"Middlesex",
                  "state":"Massachusetts",
                  "postalCode":"01730",
                  "country":"United States"
               }
            ],
            "qualification":[
               {
                  "code":{
                     "coding":[
                        {
                           "system":"http://hl7.org/fhir/v2/0360/2.7",
                           "code":"MD",
                           "display":"Doctor of Medicine"
                        }
                     ]
                  }
               }
            ]
         }
      },
      {
         "fullUrl":"urn:uuid:078fc264-e9fe-4117-b545-2b93a0611764",
         "resource":{
            "resourceType":"Practitioner",
            "id":"urn:uuid:078fc264-e9fe-4117-b545-2b93a0611764",
            "meta":{
               "profile":[
                  "http://www.hl7.org/fhir/us/vrdr/StructureDefinition/VRDR-Mortician"
               ]
            },
            "name":[
               {
                  "use":"official",
                  "family":"Last",
                  "given":[
                     "FD",
                     "Middle"
                  ],
                  "suffix":[
                     "Jr."
                  ]
               }
            ],
            "qualification":[
               {
                  "identifier":[
                     {
                        "value":"9876543210"
                     }
                  ]
               }
            ]
         }
      },
      {
         "fullUrl":"urn:uuid:b78f0c80-fe09-45b2-91cb-1df2d313ded4",
         "resource":{
            "resourceType":"Procedure",
            "id":"urn:uuid:b78f0c80-fe09-45b2-91cb-1df2d313ded4",
            "meta":{
               "profile":[
                  "http://www.hl7.org/fhir/us/vrdr/StructureDefinition/VRDR-Death-Certification"
               ]
            },
            "status":"completed",
            "category":{
               "coding":[
                  {
                     "system":"http://snomed.info/sct",
                     "code":"103693007",
                     "display":"Diagnostic procedure"
                  }
               ]
            },
            "code":{
               "coding":[
                  {
                     "system":"http://snomed.info/sct",
                     "code":"308646001",
                     "display":"Death certification"
                  }
               ]
            },
            "performedString":"2019-01-29T16:48:06.4988220-05:00",
            "performer":[
               {
                  "role":{
                     "coding":[
                        {
                           "system":"http://snomed.info/sct",
                           "code":"309343006",
                           "display":"Physician"
                        }
                     ]
                  },
                  "actor":{
                     "reference":"urn:uuid:fa3f52d2-adc2-4317-81a9-5387e53d6d2d"
                  }
               }
            ]
         }
      },
      {
         "fullUrl":"urn:uuid:53ba043a-aa4e-419b-8eba-7f71e653270f",
         "resource":{
            "resourceType":"Organization",
            "id":"urn:uuid:53ba043a-aa4e-419b-8eba-7f71e653270f",
            "meta":{
               "profile":[
                  "http://www.hl7.org/fhir/us/vrdr/StructureDefinition/VRDR-Interested-Party"
               ]
            },
            "identifier":[
               {
                  "value":"2e7302aa-32a2-4d14-8669-19e49396adcf"
               }
            ],
            "active":true,
            "type":[
               {
                  "coding":[
                     {
                        "system":"http://terminology.hl7.org/CodeSystem/organization-type",
                        "code":"prov",
                        "display":"Healthcare Provider"
                     }
                  ]
               }
            ],
            "name":"Example Hospital",
            "address":[
               {
                  "line":[
                     "10 Example Street",
                     "Line 2"
                  ],
                  "city":"Bedford",
                  "district":"Middlesex",
                  "state":"Massachusetts",
                  "postalCode":"01730",
                  "country":"United States"
               }
            ]
         }
      },
      {
         "fullUrl":"urn:uuid:d736dccd-12b2-486b-9b1e-0af34fd8de70",
         "resource":{
            "resourceType":"Organization",
            "id":"urn:uuid:d736dccd-12b2-486b-9b1e-0af34fd8de70",
            "meta":{
               "profile":[
                  "http://www.hl7.org/fhir/us/vrdr/StructureDefinition/VRDR-Funeral-Home"
               ]
            },
            "type":[
               {
                  "coding":[
                     {
                        "code":"bus",
                        "display":"Non-Healthcare Business or Corporation"
                     }
                  ]
               }
            ],
            "name":"Smith Funeral Home",
            "address":[
               {
                  "line":[
                     "1011010 Example Street",
                     "Line 2"
                  ],
                  "city":"Bedford",
                  "district":"Middlesex",
                  "state":"Massachusetts",
                  "postalCode":"01730",
                  "country":"United States"
               }
            ]
         }
      },
      {
         "fullUrl":"urn:uuid:293ceaf9-27e0-4dc3-9724-8fc749828276",
         "resource":{
            "resourceType":"PractitionerRole",
            "id":"urn:uuid:293ceaf9-27e0-4dc3-9724-8fc749828276",
            "meta":{
               "profile":[
                  "http://www.hl7.org/fhir/us/vrdr/StructureDefinition/VRDR-Funeral-Home-Director"
               ]
            },
            "practitioner":{
               "reference":"urn:uuid:078fc264-e9fe-4117-b545-2b93a0611764"
            },
            "organization":{
               "reference":"urn:uuid:d736dccd-12b2-486b-9b1e-0af34fd8de70"
            }
         }
      },
      {
         "fullUrl":"urn:uuid:17fcc2f5-b33b-4521-8bce-0f61223036ce",
         "resource":{
            "resourceType":"List",
            "id":"urn:uuid:17fcc2f5-b33b-4521-8bce-0f61223036ce",
            "meta":{
               "profile":[
                  "http://www.hl7.org/fhir/us/vrdr/StructureDefinition/VRDR-Cause-of-Death-Pathway"
               ]
            },
            "status":"current",
            "mode":"snapshot",
            "source":{
               "reference":"urn:uuid:fa3f52d2-adc2-4317-81a9-5387e53d6d2d"
            },
            "orderedBy":{
               "coding":[
                  {
                     "code":"priority"
                  }
               ]
            },
            "entry":[
               {
                  "item":{
                     "reference":"urn:uuid:85763f11-5a28-41d6-9876-d6642ed48a3f"
                  }
               },
               {
                  "item":{
                     "reference":"urn:uuid:a07591b8-fa9a-474a-b902-af38c3d5bff4"
                  }
               },
               {
                  "item":{
                     "reference":"urn:uuid:58bbd7be-a67d-4fe8-9cff-5d01dc11b0cd"
                  }
               },
               {
                  "item":{
                     "reference":"urn:uuid:819a0f20-a472-40c0-a7c0-7f8f32da1861"
                  }
               }
            ]
         }
      },
      {
         "fullUrl":"urn:uuid:1df79086-a6f9-4c18-b12f-4231e932de0f",
         "resource":{
            "resourceType":"Location",
            "id":"urn:uuid:1df79086-a6f9-4c18-b12f-4231e932de0f",
            "meta":{
               "profile":[
                  "http://hl7.org/fhir/us/vrdr/StructureDefinition/VRDR-Disposition-Location"
               ]
            },
            "name":"Bedford Cemetery",
            "address":{
               "line":[
                  "603 Example Street",
                  "Line 2"
               ],
               "city":"Bedford",
               "district":"Middlesex",
               "state":"Massachusetts",
               "postalCode":"01730",
               "country":"United States"
            }
         }
      },
      {
         "fullUrl":"urn:uuid:92db4eb5-3c79-4fb3-b7ca-72d14edfd9d3",
         "resource":{
            "resourceType":"Observation",
            "id":"urn:uuid:92db4eb5-3c79-4fb3-b7ca-72d14edfd9d3",
            "meta":{
               "profile":[
                  "http://www.hl7.org/fhir/us/vrdr/StructureDefinition/VRDR-Manner-of-Death"
               ]
            },
            "status":"final",
            "code":{
               "coding":[
                  {
                     "system":"http://loinc.org",
                     "code":"69449-7",
                     "display":"Manner of death"
                  }
               ]
            },
            "subject":{
               "reference":"urn:uuid:5be66000-e4aa-4e65-8822-645d60790f85"
            },
            "performer":[
               {
                  "reference":"urn:uuid:fa3f52d2-adc2-4317-81a9-5387e53d6d2d"
               }
            ],
            "valueCodeableConcept":{
               "coding":[
                  {
                     "code":"7878000",
                     "display":"Accident"
                  }
               ]
            }
         }
      },
      {
         "fullUrl":"urn:uuid:0eb1507e-9f2a-4711-83e6-89fc0ca8bb03",
         "resource":{
            "resourceType":"Condition",
            "id":"urn:uuid:0eb1507e-9f2a-4711-83e6-89fc0ca8bb03",
            "meta":{
               "profile":[
                  "http://www.hl7.org/fhir/us/vrdr/StructureDefinition/VRDR-Condition-Contributing-To-Death"
               ]
            },
            "code":{
               "text":"Example Contributing Conditions"
            },
            "subject":{
               "reference":"urn:uuid:5be66000-e4aa-4e65-8822-645d60790f85"
            }
         }
      },
      {
         "fullUrl":"urn:uuid:85763f11-5a28-41d6-9876-d6642ed48a3f",
         "resource":{
            "resourceType":"Condition",
            "id":"urn:uuid:85763f11-5a28-41d6-9876-d6642ed48a3f",
            "meta":{
               "profile":[
                  "http://www.hl7.org/fhir/us/vrdr/StructureDefinition/VRDR-Cause-Of-Death-Condition"
               ]
            },
            "code":{
               "coding":[
                  {
                     "system":"http://hl7.org/fhir/sid/icd-10",
                     "code":"I21.0",
                     "display":"Acute transmural myocardial infarction of anterior wall"
                  }
               ],
               "text":"Rupture of myocardium"
            },
            "subject":{
               "reference":"urn:uuid:5be66000-e4aa-4e65-8822-645d60790f85"
            },
            "onsetString":"minutes",
            "asserter":{
               "reference":"urn:uuid:fa3f52d2-adc2-4317-81a9-5387e53d6d2d"
            }
         }
      },
      {
         "fullUrl":"urn:uuid:a07591b8-fa9a-474a-b902-af38c3d5bff4",
         "resource":{
            "resourceType":"Condition",
            "id":"urn:uuid:a07591b8-fa9a-474a-b902-af38c3d5bff4",
            "meta":{
               "profile":[
                  "http://www.hl7.org/fhir/us/vrdr/StructureDefinition/VRDR-Cause-Of-Death-Condition"
               ]
            },
            "code":{
               "coding":[
                  {
                     "system":"http://hl7.org/fhir/sid/icd-10",
                     "code":"I21.9",
                     "display":"Acute myocardial infarction, unspecified"
                  }
               ],
               "text":"Acute myocardial infarction"
            },
            "subject":{
               "reference":"urn:uuid:5be66000-e4aa-4e65-8822-645d60790f85"
            },
            "onsetString":"6 days",
            "asserter":{
               "reference":"urn:uuid:fa3f52d2-adc2-4317-81a9-5387e53d6d2d"
            }
         }
      },
      {
         "fullUrl":"urn:uuid:58bbd7be-a67d-4fe8-9cff-5d01dc11b0cd",
         "resource":{
            "resourceType":"Condition",
            "id":"urn:uuid:58bbd7be-a67d-4fe8-9cff-5d01dc11b0cd",
            "meta":{
               "profile":[
                  "http://www.hl7.org/fhir/us/vrdr/StructureDefinition/VRDR-Cause-Of-Death-Condition"
               ]
            },
            "code":{
               "text":"Coronary artery thrombosis"
            },
            "subject":{
               "reference":"urn:uuid:5be66000-e4aa-4e65-8822-645d60790f85"
            },
            "onsetString":"5 years",
            "asserter":{
               "reference":"urn:uuid:fa3f52d2-adc2-4317-81a9-5387e53d6d2d"
            }
         }
      },
      {
         "fullUrl":"urn:uuid:819a0f20-a472-40c0-a7c0-7f8f32da1861",
         "resource":{
            "resourceType":"Condition",
            "id":"urn:uuid:819a0f20-a472-40c0-a7c0-7f8f32da1861",
            "meta":{
               "profile":[
                  "http://www.hl7.org/fhir/us/vrdr/StructureDefinition/VRDR-Cause-Of-Death-Condition"
               ]
            },
            "code":{
               "text":"Atherosclerotic coronary artery disease"
            },
            "subject":{
               "reference":"urn:uuid:5be66000-e4aa-4e65-8822-645d60790f85"
            },
            "onsetString":"7 years",
            "asserter":{
               "reference":"urn:uuid:fa3f52d2-adc2-4317-81a9-5387e53d6d2d"
            }
         }
      },
      {
         "fullUrl":"urn:uuid:9fe47bdf-2ddd-4a41-94a3-83cd80852ee8",
         "resource":{
            "resourceType":"RelatedPerson",
            "id":"urn:uuid:9fe47bdf-2ddd-4a41-94a3-83cd80852ee8",
            "meta":{
               "profile":[
                  "http://www.hl7.org/fhir/us/vrdr/StructureDefinition/VRDR-Decedent-Father"
               ]
            },
            "patient":{
               "reference":"urn:uuid:5be66000-e4aa-4e65-8822-645d60790f85"
            },
            "relationship":{
               "coding":[
                  {
                     "code":"FTH"
                  }
               ]
            },
            "name":[
               {
                  "family":"Last",
                  "given":[
                     "Father",
                     "Middle"
                  ],
                  "suffix":[
                     "Sr."
                  ]
               }
            ]
         }
      },
      {
         "fullUrl":"urn:uuid:19794749-b044-4139-984b-9e96e645ee7c",
         "resource":{
            "resourceType":"RelatedPerson",
            "id":"urn:uuid:19794749-b044-4139-984b-9e96e645ee7c",
            "meta":{
               "profile":[
                  "http://www.hl7.org/fhir/us/vrdr/StructureDefinition/VRDR-Decedent-Mother"
               ]
            },
            "patient":{
               "reference":"urn:uuid:5be66000-e4aa-4e65-8822-645d60790f85"
            },
            "relationship":{
               "coding":[
                  {
                     "code":"MTH"
                  }
               ]
            },
            "name":[
               {
                  "family":"Maiden",
                  "given":[
                     "Mother",
                     "Middle"
                  ],
                  "suffix":[
                     "Dr."
                  ]
               }
            ]
         }
      },
      {
         "fullUrl":"urn:uuid:748da9d6-3b12-4b3e-ac08-7b326d0d3044",
         "resource":{
            "resourceType":"RelatedPerson",
            "id":"urn:uuid:748da9d6-3b12-4b3e-ac08-7b326d0d3044",
            "meta":{
               "profile":[
                  "http://www.hl7.org/fhir/us/vrdr/StructureDefinition/VRDR-Decedent-Spouse"
               ]
            },
            "patient":{
               "reference":"urn:uuid:5be66000-e4aa-4e65-8822-645d60790f85"
            },
            "relationship":{
               "coding":[
                  {
                     "code":"SPS"
                  }
               ]
            },
            "name":[
               {
                  "family":"Last",
                  "given":[
                     "Spouse",
                     "Middle"
                  ],
                  "suffix":[
                     "Ph.D."
                  ]
               }
            ]
         }
      },
      {
         "fullUrl":"urn:uuid:a4d5b1f9-6c2d-486d-9b23-3f8ba14e8379",
         "resource":{
            "resourceType":"Observation",
            "id":"urn:uuid:a4d5b1f9-6c2d-486d-9b23-3f8ba14e8379",
            "meta":{
               "profile":[
                  "http://www.hl7.org/fhir/us/vrdr/StructureDefinition/VRDR-Decedent-Education-Level"
               ]
            },
            "status":"final",
            "code":{
               "coding":[
                  {
                     "system":"http://loinc.org",
                     "code":"80913-7",
                     "display":"Highest level of education"
                  }
               ]
            },
            "subject":{
               "reference":"urn:uuid:5be66000-e4aa-4e65-8822-645d60790f85"
            },
            "valueCodeableConcept":{
               "coding":[
                  {
                     "system":"http://hl7.org/fhir/v3/EducationLevel",
                     "code":"BD",
                     "display":"College or baccalaureate degree complete"
                  }
               ]
            }
         }
      },
      {
         "fullUrl":"urn:uuid:9754c0de-8469-4d91-af0d-598fb9380a97",
         "resource":{
            "resourceType":"Observation",
            "id":"urn:uuid:9754c0de-8469-4d91-af0d-598fb9380a97",
            "meta":{
               "profile":[
                  "http://www.hl7.org/fhir/us/vrdr/StructureDefinition/VRDR-Birth-Record-Identifier"
               ]
            },
            "status":"final",
            "code":{
               "coding":[
                  {
                     "code":"BR"
                  }
               ]
            },
            "subject":{
               "reference":"urn:uuid:5be66000-e4aa-4e65-8822-645d60790f85"
            },
            "valueString":"4242123"
         }
      },
      {
         "fullUrl":"urn:uuid:481e7390-6ca7-40e8-91c7-dd1ec51addf0",
         "resource":{
            "resourceType":"Observation",
            "id":"urn:uuid:481e7390-6ca7-40e8-91c7-dd1ec51addf0",
            "meta":{
               "profile":[
                  "http://www.hl7.org/fhir/us/vrdr/StructureDefinition/VRDR-Decedent-Employment-History"
               ]
            },
            "status":"final",
            "code":{
               "coding":[
                  {
                     "system":"http://loinc.org",
                     "code":"74165-2",
                     "display":"History of employment status"
                  }
               ]
            },
            "subject":{
               "reference":"urn:uuid:5be66000-e4aa-4e65-8822-645d60790f85"
            },
            "component":[
               {
                  "code":{
                     "coding":[
                        {
                           "system":"http://loinc.org",
                           "code":"21847-9",
                           "display":"Usual occupation"
                        }
                     ]
                  },
                  "valueCodeableConcept":{
                     "coding":[
                        {
                           "system":"http://www.hl7.org/fhir/ValueSet/Usual-occupation",
                           "code":"7280",
                           "display":"Accounting, tax preparation, bookkeeping, and payroll services"
                        }
                     ]
                  }
               },
               {
                  "code":{
                     "coding":[
                        {
                           "system":"http://loinc.org",
                           "code":"21844-6",
                           "display":"Usual industry"
                        }
                     ]
                  },
                  "valueCodeableConcept":{
                     "coding":[
                        {
                           "system":"http://www.hl7.org/fhir/ValueSet/industry-cdc-census-2010",
                           "code":"1320",
                           "display":"Aerospace engineers"
                        }
                     ]
                  }
               },
               {
                  "code":{
                     "coding":[
                        {
                           "system":"http://loinc.org",
                           "code":"55280-2",
                           "display":"Military service"
                        }
                     ]
                  },
                  "valueCodeableConcept":{
                     "coding":[
                        {
                           "system":"http://www.hl7.org/fhir/ValueSet/v2-0532",
                           "code":"Y",
                           "display":"Yes"
                        }
                     ]
                  }
               }
            ]
         }
      },
      {
         "fullUrl":"urn:uuid:58b1cd2c-bc51-4868-8bcd-08747d3a44bc",
         "resource":{
            "resourceType":"Observation",
            "id":"urn:uuid:58b1cd2c-bc51-4868-8bcd-08747d3a44bc",
            "meta":{
               "profile":[
                  "http://www.hl7.org/fhir/us/vrdr/StructureDefinition/VRDR-Decedent-Disposition-Method"
               ]
            },
            "extension":[
               {
                  "url":"http://www.hl7.org/fhir/us/vrdr/StructureDefinition/VRDR-Disposition-Location",
                  "valueReference":{
                     "reference":"urn:uuid:1df79086-a6f9-4c18-b12f-4231e932de0f"
                  }
               }
            ],
            "status":"final",
            "code":{
               "coding":[
                  {
                     "system":"http://loinc.org",
                     "code":"80905-3",
                     "display":"Body disposition method"
                  }
               ]
            },
            "subject":{
               "reference":"urn:uuid:5be66000-e4aa-4e65-8822-645d60790f85"
            },
            "performer":[
               {
                  "reference":"urn:uuid:078fc264-e9fe-4117-b545-2b93a0611764"
               }
            ],
            "valueCodeableConcept":{
               "coding":[
                  {
                     "system":"http://snomed.info/sct",
                     "code":"449971000124106",
                     "display":"Burial"
                  }
               ]
            }
         }
      },
      {
         "fullUrl":"urn:uuid:b6cf8c71-c627-4d20-acd2-56fb510f9ff5",
         "resource":{
            "resourceType":"Observation",
            "id":"urn:uuid:b6cf8c71-c627-4d20-acd2-56fb510f9ff5",
            "meta":{
               "profile":[
                  "http://www.hl7.org/fhir/us/vrdr/StructureDefinition/VRDR-Autopsy-Performed-Indicator"
               ]
            },
            "status":"final",
            "code":{
               "coding":[
                  {
                     "system":"http://loinc.org",
                     "code":"85699-7",
                     "display":"Autopsy was performed"
                  }
               ]
            },
            "subject":{
               "reference":"urn:uuid:5be66000-e4aa-4e65-8822-645d60790f85"
            },
            "valueCodeableConcept":{
               "coding":[
                  {
                     "system":"http://www.hl7.org/fhir/ValueSet/v2-0532",
                     "code":"Y",
                     "display":"Yes"
                  }
               ]
            },
            "component":[
               {
                  "code":{
                     "coding":[
                        {
                           "system":"http://loinc.org",
                           "code":"69436-4",
                           "display":"Autopsy results available"
                        }
                     ]
                  },
                  "valueCodeableConcept":{
                     "coding":[
                        {
                           "system":"http://www.hl7.org/fhir/ValueSet/v2-0532",
                           "code":"Y",
                           "display":"Yes"
                        }
                     ]
                  }
               }
            ]
         }
      },
      {
         "fullUrl":"urn:uuid:d2c368db-b27f-4dd2-ae0d-4d6f027fb505",
         "resource":{
            "resourceType":"Observation",
            "id":"urn:uuid:d2c368db-b27f-4dd2-ae0d-4d6f027fb505",
            "meta":{
               "profile":[
                  "http://www.hl7.org/fhir/us/vrdr/StructureDefinition/VRDR-Decedent-Age"
               ]
            },
            "status":"final",
            "code":{
               "coding":[
                  {
                     "system":"http://loinc.org",
                     "code":"30525-0",
                     "display":"Age"
                  }
               ]
            },
            "subject":{
               "reference":"urn:uuid:5be66000-e4aa-4e65-8822-645d60790f85"
            },
            "valueQuantity":{
               "value":100,
               "unit":"a"
            }
         }
      },
      {
         "fullUrl":"urn:uuid:cab151ab-60f3-4239-a17d-b950dcc615fa",
         "resource":{
            "resourceType":"Observation",
            "id":"urn:uuid:cab151ab-60f3-4239-a17d-b950dcc615fa",
            "meta":{
               "profile":[
                  "http://www.hl7.org/fhir/us/vrdr/StructureDefinition/VRDR-Decedent-Pregnancy"
               ]
            },
            "status":"final",
            "code":{
               "coding":[
                  {
                     "system":"http://loinc.org",
                     "code":"69442-2",
                     "display":"Timing of recent pregnancy in relation to death"
                  }
               ]
            },
            "subject":{
               "reference":"urn:uuid:5be66000-e4aa-4e65-8822-645d60790f85"
            },
            "valueCodeableConcept":{
               "coding":[
                  {
                     "system":"http://www.hl7.org/fhir/stu3/valueset-PregnancyStatusVS",
                     "code":"PHC1260",
                     "display":"Not pregnant within past year"
                  }
               ]
            }
         }
      },
      {
         "fullUrl":"urn:uuid:00ad24fc-5ef3-4fdc-b9ba-042a3cf19db0",
         "resource":{
            "resourceType":"Observation",
            "id":"urn:uuid:00ad24fc-5ef3-4fdc-b9ba-042a3cf19db0",
            "meta":{
               "profile":[
                  "http://www.hl7.org/fhir/us/vrdr/StructureDefinition/VRDR-Decedent-Transportation-Role"
               ]
            },
            "status":"final",
            "code":{
               "coding":[
                  {
                     "system":"http://loinc.org",
                     "code":"69451-3",
                     "display":"Transportation role of decedent"
                  }
               ]
            },
            "subject":{
               "reference":"urn:uuid:5be66000-e4aa-4e65-8822-645d60790f85"
            },
            "valueCodeableConcept":{
               "coding":[
                  {
                     "system":"http://www.hl7.org/fhir/stu3/valueset-TransportationRelationships",
                     "code":"example-code",
                     "display":"Example Code"
                  }
               ]
            }
         }
      },
      {
         "fullUrl":"urn:uuid:39da41c4-948f-40f8-8f31-116897bbc347",
         "resource":{
            "resourceType":"Observation",
            "id":"urn:uuid:39da41c4-948f-40f8-8f31-116897bbc347",
            "meta":{
               "profile":[
                  "http://www.hl7.org/fhir/us/vrdr/StructureDefinition/VRDR-Examiner-Contacted"
               ]
            },
            "status":"final",
            "code":{
               "coding":[
                  {
                     "system":"http://loinc.org",
                     "code":"74497-9",
                     "display":"Medical examiner or coroner was contacted"
                  }
               ]
            },
            "subject":{
               "reference":"urn:uuid:5be66000-e4aa-4e65-8822-645d60790f85"
            },
            "valueBoolean":false
         }
      },
      {
         "fullUrl":"urn:uuid:865b0456-63fe-4f9e-a7af-440b7b82ec13",
         "resource":{
            "resourceType":"Observation",
            "id":"urn:uuid:865b0456-63fe-4f9e-a7af-440b7b82ec13",
            "meta":{
               "profile":[
                  "http://www.hl7.org/fhir/us/vrdr/StructureDefinition/VRDR-Tobacco-Use-Contributed-To-Death"
               ]
            },
            "status":"final",
            "code":{
               "coding":[
                  {
                     "system":"http://loinc.org",
                     "code":"69443-0",
                     "display":"Did tobacco use contribute to death"
                  }
               ]
            },
            "subject":{
               "reference":"urn:uuid:5be66000-e4aa-4e65-8822-645d60790f85"
            },
            "valueCodeableConcept":{
               "coding":[
                  {
                     "system":"http://www.hl7.org/fhir/ValueSet/v2-0532",
                     "code":"Y",
                     "display":"Yes"
                  }
               ]
            }
         }
      },
      {
         "fullUrl":"urn:uuid:3e96f957-2070-4f0b-b4f4-c55bf7d96328",
         "resource":{
            "resourceType":"Location",
            "id":"urn:uuid:3e96f957-2070-4f0b-b4f4-c55bf7d96328",
            "meta":{
               "profile":[
                  "http://hl7.org/fhir/us/vrdr/StructureDefinition/VRDR-Injury-Location"
               ]
            },
            "name":"Example Injury Location Name",
            "description":"Example Injury Location Description",
            "address":{
               "line":[
                  "781 Example Street",
                  "Line 2"
               ],
               "city":"Bedford",
               "district":"Middlesex",
               "state":"Massachusetts",
               "postalCode":"01730",
               "country":"United States"
            }
         }
      },
      {
         "fullUrl":"urn:uuid:6c501f48-640b-4c5c-887d-8a7e3b1c85ec",
         "resource":{
            "resourceType":"Location",
            "id":"urn:uuid:6c501f48-640b-4c5c-887d-8a7e3b1c85ec",
            "meta":{
               "profile":[
                  "http://hl7.org/fhir/us/vrdr/StructureDefinition/VRDR-Death-Location"
               ]
            },
            "name":"Example Death Location Name",
            "description":"Example Death Location Description",
            "address":{
               "line":[
                  "671 Example Street",
                  "Line 2"
               ],
               "city":"Bedford",
               "district":"Middlesex",
               "state":"Massachusetts",
               "postalCode":"01730",
               "country":"United States"
            }
         }
      },
      {
         "fullUrl":"urn:uuid:545d2ded-e2ac-4c4c-ac77-282cb55511ed",
         "resource":{
            "resourceType":"Observation",
            "id":"urn:uuid:545d2ded-e2ac-4c4c-ac77-282cb55511ed",
            "meta":{
               "profile":[
                  "http://www.hl7.org/fhir/us/vrdr/StructureDefinition/VRDR-Death-Date"
               ]
            },
            "status":"final",
            "code":{
               "coding":[
                  {
                     "system":"http://loinc.org",
                     "code":"81956-5",
                     "display":"Date and time of death"
                  }
               ]
            },
            "subject":{
               "reference":"urn:uuid:5be66000-e4aa-4e65-8822-645d60790f85"
            },
            "effectiveDateTime":"2018-02-19T16:48:06.4988220-05:00",
            "performer":[
               {
                  "reference":"urn:uuid:fa3f52d2-adc2-4317-81a9-5387e53d6d2d"
               }
            ],
            "component":[
               {
                  "code":{
                     "coding":[
                        {
                           "system":"http://loinc.org",
                           "code":"80616-6",
                           "display":"Date and time pronounced dead"
                        }
                     ]
                  },
                  "valueDateTime":"2018-02-20T16:48:06.4988220-05:00"
               }
            ]
         }
      }
   ]
}
