{
  "id": "29c58fc3-5f32-4ec1-9ae9-8348507bbd7e",
  "resourceType": "Bundle",
  "type": "document",
  "identifier": {
    "value": "123"
  },
  "entry": [
    {
      "fullUrl": "urn:uuid:2b0d0e4b-8087-4a1f-b41b-9a376e14f3f5",
      "resource": {
        "id": "5a97acc3-399f-4e93-93a2-90d56a718ae9",
        "resourceType": "Composition",
        "identifier": {
          "value": "321"
        },
        "meta": {
          "profile": [
            "http://hl7.org/fhir/us/vrdr/StructureDefinition/VRDR-Death-Certificate"
          ]
        },
        "section": [
          {
            "entry": [
              {
                "reference": "urn:uuid:20a5651e-6cbc-4788-b036-00b6b6dad80b"
              },
              {
                "reference": "urn:uuid:53597c71-578f-4549-b215-f9f0246f8f09"
              },
              {
                "reference": "urn:uuid:e43378e1-1871-4119-b6cf-62b0239ca749"
              },
              {
                "reference": "urn:uuid:cc454d35-8f5c-4199-bf84-91f939d732a9"
              },
              {
                "reference": "urn:uuid:e375db7d-4fe5-420d-9b24-97b874f2ad2f"
              }
            ]
          }
        ],
        "event": [
          {
            "code": [
              {
                "coding": [
                  {
                    "system": "http://snomed.info/sct",
                    "code": "103693007",
                    "display": "Diagnostic procedure"
                  }
                ],
                "text": "Diagnostic procedure"
              }
            ],
            "detail": [
              {
                "reference": "urn:uuid:20a5651e-6cbc-4788-b036-00b6b6dad80b"
              }
            ]
          }
        ]
      }
    },
    {
      "fullUrl": "urn:uuid:20a5651e-6cbc-4788-b036-00b6b6dad80b",
      "resource": {
        "id": "49095829-5a27-4848-81f0-520803bffdf2",
        "resourceType": "Procedure",
        "meta": {
          "profile": [
            "http://hl7.org/fhir/us/vrdr/StructureDefinition/VRDR-Death-Certification"
          ]
        },
        "status": "completed",
        "category": {
          "coding": [
            {
              "system": "http://snomed.info/sct",
              "code": "103693007",
              "display": "Diagnostic procedure"
            }
          ],
          "text": "Diagnostic procedure"
        },
        "code": {
          "coding": [
            {
              "system": "http://snomed.info/sct",
              "code": "308646001",
              "display": "Death certification"
            }
          ],
          "text": "Death certification"
        }
      }
    },
    {
      "fullUrl": "urn:uuid:53597c71-578f-4549-b215-f9f0246f8f09",
      "resource": {
        "id": "33d7cf49-ee36-412e-bef5-179561069631",
        "resourceType": "List",
        "meta": {
          "profile": [
            "http://hl7.org/fhir/us/vrdr/StructureDefinition/VRDR-Cause-of-Death-Pathway"
          ]
        },
        "status": "current",
        "mode": "snapshot",
        "orderedBy": {
          "coding": [
            {
              "code": "priority"
            }
          ]
        },
        "entry": [
          {
            "item": {
              "reference": "urn:uuid:e43378e1-1871-4119-b6cf-62b0239ca749"
            }
          },
          {
            "item": {
              "reference": "urn:uuid:cc454d35-8f5c-4199-bf84-91f939d732a9"
            }
          },
          {
            "item": {
              "reference": "urn:uuid:e375db7d-4fe5-420d-9b24-97b874f2ad2f"
            }
          }
        ]
      }
    },
    {
      "fullUrl": "urn:uuid:e43378e1-1871-4119-b6cf-62b0239ca749",
      "resource": {
        "id": "99b4f214-a446-4a29-aa3f-82dc7551acd1",
        "resourceType": "Condition",
        "code": {
          "coding": [
            {
              "system": "http://hl7.org/fhir/sid/icd-10",
              "code": "I251"
            }
          ]
        },
        "meta": {
          "profile": [
            "http://hl7.org/fhir/us/vrdr/StructureDefinition/VRDR-Cause-of-Death-Condition"
          ]
        }
      }
    },
    {
      "fullUrl": "urn:uuid:cc454d35-8f5c-4199-bf84-91f939d732a9",
      "resource": {
        "id": "76cfb421-c1bb-484f-950b-b614587d5633",
        "resourceType": "Condition",
        "code": {
          "coding": [
            {
              "system": "http://hl7.org/fhir/sid/icd-10",
              "code": "I259"
            }
          ]
        },
        "meta": {
          "profile": [
            "http://hl7.org/fhir/us/vrdr/StructureDefinition/VRDR-Cause-of-Death-Condition"
          ]
        }
      }
    },
    {
      "fullUrl": "urn:uuid:e375db7d-4fe5-420d-9b24-97b874f2ad2f",
      "resource": {
        "id": "185a9881-9d06-43b0-9779-766b5b5c2052",
        "resourceType": "Condition",
        "code": {
          "coding": [
            {
              "system": "http://hl7.org/fhir/sid/icd-10",
              "code": "I250"
            }
          ]
        },
        "meta": {
          "profile": [
            "http://hl7.org/fhir/us/vrdr/StructureDefinition/VRDR-Cause-of-Death-Condition"
          ]
        }
      }
    }
  ],
  "meta": {
    "profile": [
      "http://hl7.org/fhir/us/vrdr/StructureDefinition/VRDR-Death-Certificate-Document"
    ]
  }
}
