{
  "resourceType": "Bundle",
  "id": "urn:uuid:478b6c74-dc5a-4e7d-8b0b-f7d3afdd5f5d",
  "meta": {
    "profile": [
      "http://hl7.org/fhir/us/vrdr/StructureDefinition/VRDR-Death-Certificate-Document"
    ]
  },
  "identifier": {
    "value": "42"
  },
  "type": "document",
  "entry": [
    {
      "fullUrl": "urn:uuid:3115d797-d380-4264-aee0-b160aebe95d1",
      "resource": {
        "resourceType": "Composition",
        "id": "urn:uuid:3115d797-d380-4264-aee0-b160aebe95d1",
        "meta": {
          "profile": [
            "http://hl7.org/fhir/us/vrdr/StructureDefinition/VRDR-Death-Certificate"
          ]
        },
        "identifier": {
          "value": "1"
        },
        "status": "final",
        "type": {
          "coding": [
            {
              "system": "http://loinc.org",
              "code": "64297-5",
              "display": "Death certificate"
            }
          ]
        },
        "subject": {
          "reference": "urn:uuid:e3300bdc-1bb8-4b78-90de-2f1e9e8a4511"
        },
        "date": "2019-01-20T16:47:04.498822-05:00",
        "attester": [
          {
            "mode": [
              "legal"
            ],
            "time": "2019-01-29T16:48:06.498822-05:00",
            "party": {
              "reference": "urn:uuid:c82747cf-8263-41af-a62e-01990b5ad7aa"
            }
          }
        ],
        "event": [
          {
            "code": [
              {
                "coding": [
                  {
                    "system": "http://snomed.info/sct",
                    "code": "103693007",
                    "display": "Diagnostic procedure"
                  }
                ]
              }
            ],
            "detail": [
              {
                "reference": "urn:uuid:55bc130b-aa3f-47e3-945a-1bd70f4bf12b"
              }
            ]
          }
        ],
        "section": [
          {
            "entry": [
              {
                "reference": "urn:uuid:e3300bdc-1bb8-4b78-90de-2f1e9e8a4511"
              },
              {
                "reference": "urn:uuid:c82747cf-8263-41af-a62e-01990b5ad7aa"
              },
              {
                "reference": "urn:uuid:e21512dd-2d5b-4f96-8282-874a4f7af58c"
              },
              {
                "reference": "urn:uuid:55bc130b-aa3f-47e3-945a-1bd70f4bf12b"
              },
              {
                "reference": "urn:uuid:a38ec907-ec25-4a52-bc4a-026008bcc58f"
              },
              {
                "reference": "urn:uuid:b3f4d2ed-6d26-43dd-91ca-6fc6d33b2b63"
              },
              {
                "reference": "urn:uuid:eb607826-bdef-4193-b630-6bc2739198b5"
              },
              {
                "reference": "urn:uuid:639d8c6a-356d-48a6-b9a5-33757b68e38c"
              },
              {
                "reference": "urn:uuid:93e3c460-c214-4791-9e0d-511ceabc1654"
              },
              {
                "reference": "urn:uuid:3a0af8a7-8586-4858-88cd-b6901ec7518f"
              },
              {
                "reference": "urn:uuid:354eb883-84ea-498e-b74a-1dade0c25843"
              },
              {
                "reference": "urn:uuid:150d7c3e-e8c7-4c6e-81f9-f4ddf460078a"
              },
              {
                "reference": "urn:uuid:a6f5c0b0-9919-4e7a-945d-fc367b216b5d"
              },
              {
                "reference": "urn:uuid:ba3c896e-09e8-43ee-a150-6dc87c7a8c67"
              },
              {
                "reference": "urn:uuid:b19830f3-ca31-4ee9-b0e0-2f6ada5f4b9c"
              },
              {
                "reference": "urn:uuid:b3ff25c8-2dd7-48fb-8b21-bb35493c814f"
              },
              {
                "reference": "urn:uuid:57be8a35-c82f-4511-a33c-9c23b8dd9528"
              },
              {
                "reference": "urn:uuid:5113cc6e-9400-46cd-8c7c-12db4ea112c5"
              },
              {
                "reference": "urn:uuid:a64322e2-3b07-4a50-99a0-dbf50ba91e9e"
              },
              {
                "reference": "urn:uuid:fd7e931f-0d08-49dc-84ea-17bb1b13903d"
              },
              {
                "reference": "urn:uuid:77020e3a-5c96-4e06-8cf9-41d708456e81"
              },
              {
                "reference": "urn:uuid:3b90057b-7fb2-423a-9f04-acd059797a54"
              },
              {
                "reference": "urn:uuid:47be2a81-00a4-4f5d-83fc-8fb2c9f12c03"
              },
              {
                "reference": "urn:uuid:683ebd07-ea32-4dc3-a672-cbaf1dbdf26f"
              },
              {
                "reference": "urn:uuid:36de082c-2e98-4265-8426-6ec5fc52beee"
              },
              {
                "reference": "urn:uuid:ba7150c7-5731-423f-9669-dbf908a50b40"
              },
              {
                "reference": "urn:uuid:f7490320-6951-44cd-9b26-436da6419eec"
              },
              {
                "reference": "urn:uuid:ce671d49-a063-458b-8cb5-1254e8a0c9fc"
              },
              {
                "reference": "urn:uuid:eedbfd65-e6b4-4b85-ac51-b3b774135dba"
              },
              {
                "reference": "urn:uuid:d546c170-512f-4ea4-9cb2-d89059dea036"
              },
              {
                "reference": "urn:uuid:8e96a6fa-e15c-49a8-9b8f-affac25d96c5"
              },
              {
                "reference": "urn:uuid:01a73e11-cfd2-42a3-9382-f00177922067"
              }
            ]
          }
        ]
      }
    },
    {
      "fullUrl": "urn:uuid:e3300bdc-1bb8-4b78-90de-2f1e9e8a4511",
      "resource": {
        "resourceType": "Patient",
        "id": "urn:uuid:e3300bdc-1bb8-4b78-90de-2f1e9e8a4511",
        "meta": {
          "profile": [
            "http://hl7.org/fhir/us/vrdr/StructureDefinition/VRDR-Decedent"
          ]
        },
        "extension": [
          {
            "url": "http://hl7.org/fhir/us/core/StructureDefinition/us-core-birthsex",
            "valueCodeableConcept": {
              "coding": [
                {
                  "system": "http://hl7.org/fhir/us/core/ValueSet/us-core-birthsex",
                  "code": "M",
                  "display": "Male"
                }
              ]
            }
          },
          {
            "extension": [
              {
                "url": "ombCategory",
                "valueCoding": {
                  "system": "urn:oid:2.16.840.1.113883.6.238",
                  "code": "2135-2",
                  "display": "Hispanic or Latino"
                }
              },
              {
                "url": "detailed",
                "valueCoding": {
                  "system": "urn:oid:2.16.840.1.113883.6.238",
                  "code": "2180-8",
                  "display": "Puerto Rican"
                }
              },
              {
                "url": "text",
                "valueString": "Hispanic or Latino, Puerto Rican"
              }
            ],
            "url": "http://hl7.org/fhir/us/core/StructureDefinition/us-core-ethnicity"
          },
          {
            "extension": [
              {
                "url": "ombCategory",
                "valueCoding": {
                  "system": "urn:oid:2.16.840.1.113883.6.238",
                  "code": "2106-3",
                  "display": "White"
                }
              },
              {
                "url": "ombCategory",
                "valueCoding": {
                  "system": "urn:oid:2.16.840.1.113883.6.238",
                  "code": "2076-8",
                  "display": "Native Hawaiian or Other Pacific Islander"
                }
              },
              {
                "url": "text",
                "valueString": "White, Native Hawaiian or Other Pacific Islander"
              }
            ],
            "url": "http://hl7.org/fhir/us/core/StructureDefinition/us-core-race"
          },
          {
            "url": "http://hl7.org/fhir/StructureDefinition/birthPlace",
            "valueAddress": {
              "line": [
                "1011 Example Street",
                "Line 2"
              ],
              "city": "Bedford",
              "district": "Middlesex",
              "state": "Massachusetts",
              "postalCode": "01730",
              "country": "United States"
            }
          }
        ],
        "identifier": [
          {
            "type": {
              "coding": [
                {
                  "code": "BR",
                  "display": "Social Beneficiary Identifier"
                }
              ]
            },
            "system": "http://hl7.org/fhir/sid/us-ssn",
            "value": "123456789"
          }
        ],
        "name": [
          {
            "use": "official",
            "family": "Last",
            "given": [
              "Example",
              "Something",
              "Middle"
            ],
            "suffix": [
              "Jr."
            ]
          },
          {
            "use": "nickname",
            "family": "LastNameAlias",
            "given": [
              "FirstNameAlias",
              "MiddleAlias"
            ],
            "suffix": [
              "Jr."
            ]
          }
        ],
        "gender": "male",
        "birthDate": "1940-02-19T16:48:06.498822-05:00",
        "address": [
          {
            "line": [
              "101 Example Street",
              "Line 2"
            ],
            "city": "Bedford",
            "district": "Middlesex",
            "state": "Massachusetts",
            "postalCode": "01730",
            "country": "United States"
          }
        ],
        "maritalStatus": {
          "coding": [
            {
              "system": "http://hl7.org/fhir/v3/MaritalStatus",
              "code": "S",
              "display": "Never Married"
            }
          ]
        }
      }
    },
    {
      "fullUrl": "urn:uuid:c82747cf-8263-41af-a62e-01990b5ad7aa",
      "resource": {
        "resourceType": "Practitioner",
        "id": "urn:uuid:c82747cf-8263-41af-a62e-01990b5ad7aa",
        "meta": {
          "profile": [
            "http://hl7.org/fhir/us/vrdr/StructureDefinition/VRDR-Certifier"
          ]
        },
        "name": [
          {
            "use": "official",
            "family": "Last",
            "given": [
              "Doctor",
              "Middle"
            ],
            "suffix": [
              "Jr."
            ]
          }
        ],
        "address": [
          {
            "line": [
              "11 Example Street",
              "Line 2"
            ],
            "city": "Bedford",
            "district": "Middlesex",
            "state": "Massachusetts",
            "postalCode": "01730",
            "country": "United States"
          }
        ],
        "qualification": [
          {
            "identifier": [
              {
                "value": "789123456"
              }
            ],
            "code": {
              "coding": [
                {
                  "system": "http://hl7.org/fhir/v2/0360/2.7",
                  "code": "MD",
                  "display": "Doctor of Medicine"
                }
              ]
            }
          }
        ]
      }
    },
    {
      "fullUrl": "urn:uuid:e21512dd-2d5b-4f96-8282-874a4f7af58c",
      "resource": {
        "resourceType": "Practitioner",
        "id": "urn:uuid:e21512dd-2d5b-4f96-8282-874a4f7af58c",
        "meta": {
          "profile": [
            "http://hl7.org/fhir/us/vrdr/StructureDefinition/VRDR-Mortician"
          ]
        },
        "name": [
          {
            "use": "official",
            "family": "Last",
            "given": [
              "FD",
              "Middle"
            ],
            "suffix": [
              "Jr."
            ]
          }
        ],
        "qualification": [
          {
            "identifier": [
              {
                "value": "9876543210"
              }
            ]
          }
        ]
      }
    },
    {
      "fullUrl": "urn:uuid:55bc130b-aa3f-47e3-945a-1bd70f4bf12b",
      "resource": {
        "resourceType": "Procedure",
        "id": "urn:uuid:55bc130b-aa3f-47e3-945a-1bd70f4bf12b",
        "meta": {
          "profile": [
            "http://hl7.org/fhir/us/vrdr/StructureDefinition/VRDR-Death-Certification"
          ]
        },
        "status": "completed",
        "category": {
          "coding": [
            {
              "system": "http://snomed.info/sct",
              "code": "103693007",
              "display": "Diagnostic procedure"
            }
          ]
        },
        "code": {
          "coding": [
            {
              "system": "http://snomed.info/sct",
              "code": "308646001",
              "display": "Death certification"
            }
          ]
        },
        "performedDateTime": "2019-01-29T16:48:06.498822-05:00",
        "performer": [
          {
            "role": {
              "coding": [
                {
                  "system": "http://snomed.info/sct",
                  "code": "309343006",
                  "display": "Physician"
                }
              ]
            },
            "actor": {
              "reference": "urn:uuid:c82747cf-8263-41af-a62e-01990b5ad7aa"
            }
          }
        ]
      }
    },
    {
      "fullUrl": "urn:uuid:a38ec907-ec25-4a52-bc4a-026008bcc58f",
      "resource": {
        "resourceType": "Organization",
        "id": "urn:uuid:a38ec907-ec25-4a52-bc4a-026008bcc58f",
        "meta": {
          "profile": [
            "http://hl7.org/fhir/us/vrdr/StructureDefinition/VRDR-Interested-Party"
          ]
        },
        "identifier": [
          {
            "value": "1010101"
          }
        ],
        "active": true,
        "type": [
          {
            "coding": [
              {
                "system": "http://terminology.hl7.org/CodeSystem/organization-type",
                "code": "prov",
                "display": "Healthcare Provider"
              }
            ]
          }
        ],
        "name": "Example Hospital",
        "address": [
          {
            "line": [
              "10 Example Street",
              "Line 2"
            ],
            "city": "Bedford",
            "district": "Middlesex",
            "state": "Massachusetts",
            "postalCode": "01730",
            "country": "United States"
          }
        ]
      }
    },
    {
      "fullUrl": "urn:uuid:b3f4d2ed-6d26-43dd-91ca-6fc6d33b2b63",
      "resource": {
        "resourceType": "Organization",
        "id": "urn:uuid:b3f4d2ed-6d26-43dd-91ca-6fc6d33b2b63",
        "meta": {
          "profile": [
            "http://hl7.org/fhir/us/vrdr/StructureDefinition/VRDR-Funeral-Home"
          ]
        },
        "type": [
          {
            "coding": [
              {
                "code": "bus",
                "display": "Non-Healthcare Business or Corporation"
              }
            ]
          }
        ],
        "name": "Smith Funeral Home",
        "address": [
          {
            "line": [
              "1011010 Example Street",
              "Line 2"
            ],
            "city": "Bedford",
            "district": "Middlesex",
            "state": "Massachusetts",
            "postalCode": "01730",
            "country": "United States"
          }
        ]
      }
    },
    {
      "fullUrl": "urn:uuid:eb607826-bdef-4193-b630-6bc2739198b5",
      "resource": {
        "resourceType": "PractitionerRole",
        "id": "urn:uuid:eb607826-bdef-4193-b630-6bc2739198b5",
        "meta": {
          "profile": [
            "http://hl7.org/fhir/us/vrdr/StructureDefinition/VRDR-Funeral-Home-Director"
          ]
        },
        "practitioner": {
          "reference": "urn:uuid:e21512dd-2d5b-4f96-8282-874a4f7af58c"
        },
        "organization": {
          "reference": "urn:uuid:b3f4d2ed-6d26-43dd-91ca-6fc6d33b2b63"
        }
      }
    },
    {
      "fullUrl": "urn:uuid:93e3c460-c214-4791-9e0d-511ceabc1654",
      "resource": {
        "resourceType": "Location",
        "id": "urn:uuid:93e3c460-c214-4791-9e0d-511ceabc1654",
        "meta": {
          "profile": [
            "http://hl7.org/fhir/us/vrdr/StructureDefinition/VRDR-Disposition-Location"
          ]
        },
        "name": "Bedford Cemetery",
        "address": {
          "line": [
            "603 Example Street",
            "Line 2"
          ],
          "city": "Bedford",
          "district": "Middlesex",
          "state": "Massachusetts",
          "postalCode": "01730",
          "country": "United States"
        }
      }
    },
    {
      "fullUrl": "urn:uuid:3a0af8a7-8586-4858-88cd-b6901ec7518f",
      "resource": {
        "resourceType": "Observation",
        "id": "urn:uuid:3a0af8a7-8586-4858-88cd-b6901ec7518f",
        "meta": {
          "profile": [
            "http://hl7.org/fhir/us/vrdr/StructureDefinition/VRDR-Manner-of-Death"
          ]
        },
        "status": "final",
        "code": {
          "coding": [
            {
              "system": "http://loinc.org",
              "code": "69449-7",
              "display": "Manner of death"
            }
          ]
        },
        "subject": {
          "reference": "urn:uuid:e3300bdc-1bb8-4b78-90de-2f1e9e8a4511"
        },
        "performer": [
          {
            "reference": "urn:uuid:c82747cf-8263-41af-a62e-01990b5ad7aa"
          }
        ],
        "valueCodeableConcept": {
          "coding": [
            {
              "code": "7878000",
              "display": "Accident"
            }
          ]
        }
      }
    },
    {
      "fullUrl": "urn:uuid:354eb883-84ea-498e-b74a-1dade0c25843",
      "resource": {
        "resourceType": "Condition",
        "id": "urn:uuid:354eb883-84ea-498e-b74a-1dade0c25843",
        "meta": {
          "profile": [
            "http://hl7.org/fhir/us/vrdr/StructureDefinition/VRDR-Condition-Contributing-To-Death"
          ]
        },
        "code": {
          "text": "Example Contributing Conditions"
        },
        "subject": {
          "reference": "urn:uuid:e3300bdc-1bb8-4b78-90de-2f1e9e8a4511"
        }
      }
    },
    {
      "fullUrl": "urn:uuid:150d7c3e-e8c7-4c6e-81f9-f4ddf460078a",
      "resource": {
        "resourceType": "Condition",
        "id": "urn:uuid:150d7c3e-e8c7-4c6e-81f9-f4ddf460078a",
        "meta": {
          "profile": [
            "http://hl7.org/fhir/us/vrdr/StructureDefinition/VRDR-Cause-Of-Death-Condition"
          ]
        },
        "code": {
          "coding": [
            {
              "system": "http://hl7.org/fhir/sid/icd-10",
              "code": "I21.0",
              "display": "Acute transmural myocardial infarction of anterior wall"
            }
          ],
          "text": "Rupture of myocardium"
        },
        "subject": {
          "reference": "urn:uuid:e3300bdc-1bb8-4b78-90de-2f1e9e8a4511"
        },
        "onsetString": "minutes",
        "asserter": {
          "reference": "urn:uuid:c82747cf-8263-41af-a62e-01990b5ad7aa"
        }
      }
    },
    {
      "fullUrl": "urn:uuid:a6f5c0b0-9919-4e7a-945d-fc367b216b5d",
      "resource": {
        "resourceType": "Condition",
        "id": "urn:uuid:a6f5c0b0-9919-4e7a-945d-fc367b216b5d",
        "meta": {
          "profile": [
            "http://hl7.org/fhir/us/vrdr/StructureDefinition/VRDR-Cause-Of-Death-Condition"
          ]
        },
        "code": {
          "coding": [
            {
              "system": "http://hl7.org/fhir/sid/icd-10",
              "code": "I21.9",
              "display": "Acute myocardial infarction, unspecified"
            }
          ],
          "text": "Acute myocardial infarction"
        },
        "subject": {
          "reference": "urn:uuid:e3300bdc-1bb8-4b78-90de-2f1e9e8a4511"
        },
        "onsetString": "6 days",
        "asserter": {
          "reference": "urn:uuid:c82747cf-8263-41af-a62e-01990b5ad7aa"
        }
      }
    },
    {
      "fullUrl": "urn:uuid:ba3c896e-09e8-43ee-a150-6dc87c7a8c67",
      "resource": {
        "resourceType": "Condition",
        "id": "urn:uuid:ba3c896e-09e8-43ee-a150-6dc87c7a8c67",
        "meta": {
          "profile": [
            "http://hl7.org/fhir/us/vrdr/StructureDefinition/VRDR-Cause-Of-Death-Condition"
          ]
        },
        "code": {
          "text": "Coronary artery thrombosis"
        },
        "subject": {
          "reference": "urn:uuid:e3300bdc-1bb8-4b78-90de-2f1e9e8a4511"
        },
        "onsetString": "5 years",
        "asserter": {
          "reference": "urn:uuid:c82747cf-8263-41af-a62e-01990b5ad7aa"
        }
      }
    },
    {
      "fullUrl": "urn:uuid:b19830f3-ca31-4ee9-b0e0-2f6ada5f4b9c",
      "resource": {
        "resourceType": "Condition",
        "id": "urn:uuid:b19830f3-ca31-4ee9-b0e0-2f6ada5f4b9c",
        "meta": {
          "profile": [
            "http://hl7.org/fhir/us/vrdr/StructureDefinition/VRDR-Cause-Of-Death-Condition"
          ]
        },
        "code": {
          "text": "Atherosclerotic coronary artery disease"
        },
        "subject": {
          "reference": "urn:uuid:e3300bdc-1bb8-4b78-90de-2f1e9e8a4511"
        },
        "onsetString": "7 years",
        "asserter": {
          "reference": "urn:uuid:c82747cf-8263-41af-a62e-01990b5ad7aa"
        }
      }
    },
    {
      "fullUrl": "urn:uuid:b3ff25c8-2dd7-48fb-8b21-bb35493c814f",
      "resource": {
        "resourceType": "RelatedPerson",
        "id": "urn:uuid:b3ff25c8-2dd7-48fb-8b21-bb35493c814f",
        "meta": {
          "profile": [
            "http://hl7.org/fhir/us/vrdr/StructureDefinition/VRDR-Decedent-Father"
          ]
        },
        "patient": {
          "reference": "urn:uuid:e3300bdc-1bb8-4b78-90de-2f1e9e8a4511"
        },
        "relationship": {
          "coding": [
            {
              "code": "FTH"
            }
          ]
        },
        "name": [
          {
            "family": "Last",
            "given": [
              "Father",
              "Middle"
            ],
            "suffix": [
              "Sr."
            ]
          }
        ]
      }
    },
    {
      "fullUrl": "urn:uuid:57be8a35-c82f-4511-a33c-9c23b8dd9528",
      "resource": {
        "resourceType": "RelatedPerson",
        "id": "urn:uuid:57be8a35-c82f-4511-a33c-9c23b8dd9528",
        "meta": {
          "profile": [
            "http://hl7.org/fhir/us/vrdr/StructureDefinition/VRDR-Decedent-Mother"
          ]
        },
        "patient": {
          "reference": "urn:uuid:e3300bdc-1bb8-4b78-90de-2f1e9e8a4511"
        },
        "relationship": {
          "coding": [
            {
              "code": "MTH"
            }
          ]
        },
        "name": [
          {
            "family": "Maiden",
            "given": [
              "Mother",
              "Middle"
            ],
            "suffix": [
              "Dr."
            ]
          }
        ]
      }
    },
    {
      "fullUrl": "urn:uuid:5113cc6e-9400-46cd-8c7c-12db4ea112c5",
      "resource": {
        "resourceType": "RelatedPerson",
        "id": "urn:uuid:5113cc6e-9400-46cd-8c7c-12db4ea112c5",
        "meta": {
          "profile": [
            "http://hl7.org/fhir/us/vrdr/StructureDefinition/VRDR-Decedent-Spouse"
          ]
        },
        "patient": {
          "reference": "urn:uuid:e3300bdc-1bb8-4b78-90de-2f1e9e8a4511"
        },
        "relationship": {
          "coding": [
            {
              "code": "SPS"
            }
          ]
        },
        "name": [
          {
            "family": "Last",
            "given": [
              "Spouse",
              "Middle"
            ],
            "suffix": [
              "Ph.D."
            ]
          }
        ]
      }
    },
    {
      "fullUrl": "urn:uuid:a64322e2-3b07-4a50-99a0-dbf50ba91e9e",
      "resource": {
        "resourceType": "Observation",
        "id": "urn:uuid:a64322e2-3b07-4a50-99a0-dbf50ba91e9e",
        "meta": {
          "profile": [
            "http://hl7.org/fhir/us/vrdr/StructureDefinition/VRDR-Decedent-Education-Level"
          ]
        },
        "status": "final",
        "code": {
          "coding": [
            {
              "system": "http://loinc.org",
              "code": "80913-7",
              "display": "Highest level of education"
            }
          ]
        },
        "subject": {
          "reference": "urn:uuid:e3300bdc-1bb8-4b78-90de-2f1e9e8a4511"
        },
        "valueCodeableConcept": {
          "coding": [
            {
              "system": "http://hl7.org/fhir/v3/EducationLevel",
              "code": "BD",
              "display": "College or baccalaureate degree complete"
            }
          ]
        }
      }
    },
    {
      "fullUrl": "urn:uuid:fd7e931f-0d08-49dc-84ea-17bb1b13903d",
      "resource": {
        "resourceType": "Observation",
        "id": "urn:uuid:fd7e931f-0d08-49dc-84ea-17bb1b13903d",
        "meta": {
          "profile": [
            "http://hl7.org/fhir/us/vrdr/StructureDefinition/VRDR-Birth-Record-Identifier"
          ]
        },
        "status": "final",
        "code": {
          "coding": [
            {
              "code": "BR"
            }
          ]
        },
        "subject": {
          "reference": "urn:uuid:e3300bdc-1bb8-4b78-90de-2f1e9e8a4511"
        },
        "valueString": "4242123"
      }
    },
    {
      "fullUrl": "urn:uuid:77020e3a-5c96-4e06-8cf9-41d708456e81",
      "resource": {
        "resourceType": "Observation",
        "id": "urn:uuid:77020e3a-5c96-4e06-8cf9-41d708456e81",
        "meta": {
          "profile": [
            "http://hl7.org/fhir/us/vrdr/StructureDefinition/VRDR-Decedent-Employment-History"
          ]
        },
        "status": "final",
        "code": {
          "coding": [
            {
              "system": "http://loinc.org",
              "code": "74165-2",
              "display": "History of employment status"
            }
          ]
        },
        "subject": {
          "reference": "urn:uuid:e3300bdc-1bb8-4b78-90de-2f1e9e8a4511"
        },
        "component": [
          {
            "code": {
              "coding": [
                {
                  "system": "http://loinc.org",
                  "code": "21847-9",
                  "display": "Usual occupation"
                }
              ]
            },
            "valueCodeableConcept": {
              "coding": [
                {
                  "system": "http://hl7.org/fhir/ValueSet/occupation-cdc-census-2010",
                  "code": "1340",
                  "display": "Biomedical engineers"
                }
              ]
            }
          },
          {
            "code": {
              "coding": [
                {
                  "system": "http://loinc.org",
                  "code": "21844-6",
                  "display": "Usual industry"
                }
              ]
            },
            "valueCodeableConcept": {
              "coding": [
                {
                  "system": "http://hl7.org/fhir/ValueSet/industry-cdc-census-2010",
                  "code": "7280",
                  "display": "Accounting, tax preparation, bookkeeping, and payroll services"
                }
              ]
            }
          },
          {
            "code": {
              "coding": [
                {
                  "system": "http://loinc.org",
                  "code": "55280-2",
                  "display": "Military service"
                }
              ]
            },
            "valueCodeableConcept": {
              "coding": [
                {
                  "system": "http://hl7.org/fhir/ValueSet/v2-0532",
                  "code": "Y",
                  "display": "Yes"
                }
              ]
            }
          }
        ]
      }
    },
    {
      "fullUrl": "urn:uuid:3b90057b-7fb2-423a-9f04-acd059797a54",
      "resource": {
        "resourceType": "Observation",
        "id": "urn:uuid:3b90057b-7fb2-423a-9f04-acd059797a54",
        "meta": {
          "profile": [
            "http://hl7.org/fhir/us/vrdr/StructureDefinition/VRDR-Decedent-Disposition-Method"
          ]
        },
        "extension": [
          {
            "url": "http://hl7.org/fhir/us/vrdr/StructureDefinition/VRDR-Disposition-Location",
            "valueReference": {
              "reference": "urn:uuid:93e3c460-c214-4791-9e0d-511ceabc1654"
            }
          }
        ],
        "status": "final",
        "code": {
          "coding": [
            {
              "system": "http://loinc.org",
              "code": "80905-3",
              "display": "Body disposition method"
            }
          ]
        },
        "subject": {
          "reference": "urn:uuid:e3300bdc-1bb8-4b78-90de-2f1e9e8a4511"
        },
        "performer": [
          {
            "reference": "urn:uuid:e21512dd-2d5b-4f96-8282-874a4f7af58c"
          }
        ],
        "valueCodeableConcept": {
          "coding": [
            {
              "system": "http://snomed.info/sct",
              "code": "449971000124106",
              "display": "Burial"
            }
          ]
        }
      }
    },
    {
      "fullUrl": "urn:uuid:47be2a81-00a4-4f5d-83fc-8fb2c9f12c03",
      "resource": {
        "resourceType": "Observation",
        "id": "urn:uuid:47be2a81-00a4-4f5d-83fc-8fb2c9f12c03",
        "meta": {
          "profile": [
            "http://hl7.org/fhir/us/vrdr/StructureDefinition/VRDR-Autopsy-Performed-Indicator"
          ]
        },
        "status": "final",
        "code": {
          "coding": [
            {
              "system": "http://loinc.org",
              "code": "85699-7",
              "display": "Autopsy was performed"
            }
          ]
        },
        "subject": {
          "reference": "urn:uuid:e3300bdc-1bb8-4b78-90de-2f1e9e8a4511"
        },
        "valueCodeableConcept": {
          "coding": [
            {
              "system": "http://hl7.org/fhir/ValueSet/v2-0532",
              "code": "Y",
              "display": "Yes"
            }
          ]
        },
        "component": [
          {
            "code": {
              "coding": [
                {
                  "system": "http://loinc.org",
                  "code": "69436-4",
                  "display": "Autopsy results available"
                }
              ]
            },
            "valueCodeableConcept": {
              "coding": [
                {
                  "system": "http://hl7.org/fhir/ValueSet/v2-0532",
                  "code": "Y",
                  "display": "Yes"
                }
              ]
            }
          }
        ]
      }
    },
    {
      "fullUrl": "urn:uuid:683ebd07-ea32-4dc3-a672-cbaf1dbdf26f",
      "resource": {
        "resourceType": "Observation",
        "id": "urn:uuid:683ebd07-ea32-4dc3-a672-cbaf1dbdf26f",
        "meta": {
          "profile": [
            "http://hl7.org/fhir/us/vrdr/StructureDefinition/VRDR-Decedent-Age"
          ]
        },
        "status": "final",
        "code": {
          "coding": [
            {
              "system": "http://loinc.org",
              "code": "30525-0",
              "display": "Age"
            }
          ]
        },
        "subject": {
          "reference": "urn:uuid:e3300bdc-1bb8-4b78-90de-2f1e9e8a4511"
        },
        "valueQuantity": {
          "value": 100,
          "unit": "a"
        }
      }
    },
    {
      "fullUrl": "urn:uuid:36de082c-2e98-4265-8426-6ec5fc52beee",
      "resource": {
        "resourceType": "Observation",
        "id": "urn:uuid:36de082c-2e98-4265-8426-6ec5fc52beee",
        "meta": {
          "profile": [
            "http://hl7.org/fhir/us/vrdr/StructureDefinition/VRDR-Decedent-Pregnancy"
          ]
        },
        "status": "final",
        "code": {
          "coding": [
            {
              "system": "http://loinc.org",
              "code": "69442-2",
              "display": "Timing of recent pregnancy in relation to death"
            }
          ]
        },
        "subject": {
          "reference": "urn:uuid:e3300bdc-1bb8-4b78-90de-2f1e9e8a4511"
        },
        "valueCodeableConcept": {
          "coding": [
            {
              "system": "http://hl7.org/fhir/stu3/valueset-PregnancyStatusVS",
              "code": "PHC1260",
              "display": "Not pregnant within past year"
            }
          ]
        }
      }
    },
    {
      "fullUrl": "urn:uuid:ba7150c7-5731-423f-9669-dbf908a50b40",
      "resource": {
        "resourceType": "Observation",
        "id": "urn:uuid:ba7150c7-5731-423f-9669-dbf908a50b40",
        "meta": {
          "profile": [
            "http://hl7.org/fhir/us/vrdr/StructureDefinition/VRDR-Decedent-Transportation-Role"
          ]
        },
        "status": "final",
        "code": {
          "coding": [
            {
              "system": "http://loinc.org",
              "code": "69451-3",
              "display": "Transportation role of decedent"
            }
          ]
        },
        "subject": {
          "reference": "urn:uuid:e3300bdc-1bb8-4b78-90de-2f1e9e8a4511"
        },
        "valueCodeableConcept": {
          "coding": [
            {
              "system": "http://hl7.org/fhir/stu3/valueset-TransportationRelationships",
              "code": "example-code",
              "display": "Example Code"
            }
          ]
        }
      }
    },
    {
      "fullUrl": "urn:uuid:f7490320-6951-44cd-9b26-436da6419eec",
      "resource": {
        "resourceType": "Observation",
        "id": "urn:uuid:f7490320-6951-44cd-9b26-436da6419eec",
        "meta": {
          "profile": [
            "http://hl7.org/fhir/us/vrdr/StructureDefinition/VRDR-Examiner-Contacted"
          ]
        },
        "status": "final",
        "code": {
          "coding": [
            {
              "system": "http://loinc.org",
              "code": "74497-9",
              "display": "Medical examiner or coroner was contacted"
            }
          ]
        },
        "subject": {
          "reference": "urn:uuid:e3300bdc-1bb8-4b78-90de-2f1e9e8a4511"
        },
        "valueBoolean": false
      }
    },
    {
      "fullUrl": "urn:uuid:ce671d49-a063-458b-8cb5-1254e8a0c9fc",
      "resource": {
        "resourceType": "Observation",
        "id": "urn:uuid:ce671d49-a063-458b-8cb5-1254e8a0c9fc",
        "meta": {
          "profile": [
            "http://hl7.org/fhir/us/vrdr/StructureDefinition/VRDR-Tobacco-Use-Contributed-To-Death"
          ]
        },
        "status": "final",
        "code": {
          "coding": [
            {
              "system": "http://loinc.org",
              "code": "69443-0",
              "display": "Did tobacco use contribute to death"
            }
          ]
        },
        "subject": {
          "reference": "urn:uuid:e3300bdc-1bb8-4b78-90de-2f1e9e8a4511"
        },
        "valueCodeableConcept": {
          "coding": [
            {
              "system": "http://hl7.org/fhir/ValueSet/v2-0532",
              "code": "Y",
              "display": "Yes"
            }
          ]
        }
      }
    },
    {
      "fullUrl": "urn:uuid:eedbfd65-e6b4-4b85-ac51-b3b774135dba",
      "resource": {
        "resourceType": "Location",
        "id": "urn:uuid:eedbfd65-e6b4-4b85-ac51-b3b774135dba",
        "meta": {
          "profile": [
            "http://hl7.org/fhir/us/vrdr/StructureDefinition/VRDR-Injury-Location"
          ]
        },
        "name": "Example Injury Location Name",
        "description": "Example Injury Location Description",
        "address": {
          "line": [
            "781 Example Street",
            "Line 2"
          ],
          "city": "Bedford",
          "district": "Middlesex",
          "state": "Massachusetts",
          "postalCode": "01730",
          "country": "United States"
        }
      }
    },
    {
      "fullUrl": "urn:uuid:d546c170-512f-4ea4-9cb2-d89059dea036",
      "resource": {
        "resourceType": "Observation",
        "id": "urn:uuid:d546c170-512f-4ea4-9cb2-d89059dea036",
        "meta": {
          "profile": [
            "http://hl7.org/fhir/us/vrdr/StructureDefinition/VRDR-Injury-Incident"
          ]
        },
        "status": "final",
        "code": {
          "coding": [
            {
              "system": "http://loinc.org",
              "code": "11374-6",
              "display": "Injury incident description"
            }
          ]
        },
        "subject": {
          "reference": "urn:uuid:e3300bdc-1bb8-4b78-90de-2f1e9e8a4511"
        },
        "effectiveDateTime": "2018-02-19T16:48:06.498822-05:00"
      }
    },
    {
      "fullUrl": "urn:uuid:8e96a6fa-e15c-49a8-9b8f-affac25d96c5",
      "resource": {
        "resourceType": "Location",
        "id": "urn:uuid:8e96a6fa-e15c-49a8-9b8f-affac25d96c5",
        "meta": {
          "profile": [
            "http://hl7.org/fhir/us/vrdr/StructureDefinition/VRDR-Death-Location"
          ]
        },
        "name": "Example Death Location Name",
        "description": "Example Death Location Description",
        "address": {
          "line": [
            "671 Example Street",
            "Line 2"
          ],
          "city": "Bedford",
          "district": "Middlesex",
          "state": "Massachusetts",
          "postalCode": "01730",
          "country": "United States"
        }
      }
    },
    {
      "fullUrl": "urn:uuid:01a73e11-cfd2-42a3-9382-f00177922067",
      "resource": {
        "resourceType": "Observation",
        "id": "urn:uuid:01a73e11-cfd2-42a3-9382-f00177922067",
        "meta": {
          "profile": [
            "http://hl7.org/fhir/us/vrdr/StructureDefinition/VRDR-Death-Date"
          ]
        },
        "status": "final",
        "code": {
          "coding": [
            {
              "system": "http://loinc.org",
              "code": "81956-5",
              "display": "Date and time of death"
            }
          ]
        },
        "subject": {
          "reference": "urn:uuid:e3300bdc-1bb8-4b78-90de-2f1e9e8a4511"
        },
        "effectiveDateTime": "2018-02-19T16:48:06.498822-05:00",
        "performer": [
          {
            "reference": "urn:uuid:c82747cf-8263-41af-a62e-01990b5ad7aa"
          }
        ],
        "component": [
          {
            "code": {
              "coding": [
                {
                  "system": "http://loinc.org",
                  "code": "80616-6",
                  "display": "Date and time pronounced dead"
                }
              ]
            },
            "valueDateTime": "2018-02-20T16:48:06.498822-05:00"
          }
        ]
      }
    }
  ]
}


